loggingTime(txt),accelerometerTimestamp_sinceReboot(s),accelerometerAccelerationX(G),accelerometerAccelerationY(G),accelerometerAccelerationZ(G),motionTimestamp_sinceReboot(s),motionYaw(rad),motionRoll(rad),motionPitch(rad),motionRotationRateX(rad/s),motionRotationRateY(rad/s),motionRotationRateZ(rad/s),motionUserAccelerationX(G),motionUserAccelerationY(G),motionUserAccelerationZ(G),motionAttitudeReferenceFrame(txt),motionQuaternionX(R),motionQuaternionY(R),motionQuaternionZ(R),motionQuaternionW(R),motionGravityX(G),motionGravityY(G),motionGravityZ(G),motionMagneticFieldX(µT),motionMagneticFieldY(µT),motionMagneticFieldZ(µT),motionHeading(°),motionMagneticFieldCalibrationAccuracy(Z),deviceID(txt),heartRateBPMTimestamp(txt),heartRateBPM(N),heartRateBPS(R),heartRateVariabilityTimestamp(txt),heartRateVariability(ms),label
2026-03-03T15:48:18.599-08:00,89098.25385375001,0.1304168701171875,-0.442108154296875,-0.916839599609375,89098.23386675,2.758514697838002,0.1288905266237201,0.4608570150107569,0.006055310368537903,-0.05132068693637848,0.1596667915582657,-0.002575390040874481,-0.01347503066062927,-0.04445123672485352,XArbitraryZVertical,0.01816263471037347,-0.2356884118739636,-0.9565803951718574,-0.1705136439844588,0.1151242181658745,-0.4447158873081207,-0.8882421851158142,0,0,0,-1,-1,watch,2026-03-03T15:38:39.121-08:00,58,0.9666666666666667,2026-03-03T15:14:50.513-08:00,0.04817426841822398,0
2026-03-03T15:48:18.620-08:00,89098.27383975001,0.12353515625,-0.43609619140625,-0.8877105712890625,89098.25385375001,2.761512575084835,0.1263437271916793,0.4603387159598236,-0.0871710330247879,-0.06251314282417297,0.1021349877119064,0.01752616465091705,0.002143442630767822,-0.02807849645614624,XArbitraryZVertical,0.01734867777873599,-0.2351988528879855,-0.9569127061165887,-0.16940636299114,0.1128907054662704,-0.4442515969276428,-0.888761043548584,0,0,0,-1,-1,watch,2026-03-03T15:38:39.121-08:00,58,0.9666666666666667,2026-03-03T15:14:50.513-08:00,0.04817426841822398,0
2026-03-03T15:48:18.639-08:00,89098.29382675,0.1229095458984375,-0.4214630126953125,-0.8814849853515625,89098.27383975001,2.763634859799633,0.1242186302757006,0.4578473789543265,-0.1758060902357101,-0.05313188955187798,0.04745443910360336,0.01239664107561111,0.005922019481658936,0.002383887767791748,XArbitraryZVertical,0.01682598904069501,-0.2338154575664241,-0.9573738007415995,-0.168767735978217,0.1111385300755501,-0.4420182108879089,-0.8900944590568542,0,0,0,-1,-1,watch,2026-03-03T15:38:39.121-08:00,58,0.9666666666666667,2026-03-03T15:14:50.513-08:00,0.04817426841822398,0
2026-03-03T15:48:18.659-08:00,89098.31381375001,0.1125030517578125,-0.380889892578125,-0.8826141357421875,89098.29382675,2.764573367264757,0.1228232442933841,0.4547951217372613,-0.1238890215754509,-0.04121339321136475,0.001929717604070902,0.0128483772277832,0.0178152322769165,0.01009851694107056,XArbitraryZVertical,0.0165665466964166,-0.2322365048962846,-0.9577858914176062,-0.1686357875609413,0.1100611835718155,-0.4392782747745514,-0.8915835022926331,0,0,0,-1,-1,watch,2026-03-03T15:38:39.121-08:00,58,0.9666666666666667,2026-03-03T15:14:50.513-08:00,0.04817426841822398,0
2026-03-03T15:48:18.679-08:00,89098.33379975001,0.1035308837890625,-0.42095947265625,-0.890472412109375,89098.31381375001,2.764362062928369,0.1223003944511799,0.4533699056015867,-0.01762338727712631,-0.0200731884688139,-0.02259715273976326,0.002831794321537018,0.05710756778717041,0.00964730978012085,XArbitraryZVertical,0.01643119179321104,-0.2315152330769289,-0.9579217002739409,-0.1688694031999304,0.1096712723374367,-0.4379974901676178,-0.8922614455223083,0,0,0,-1,-1,watch,2026-03-03T15:38:39.121-08:00,58,0.9666666666666667,2026-03-03T15:14:50.513-08:00,0.04817426841822398,0
2026-03-03T15:48:18.699-08:00,89098.35378675001,0.1093902587890625,-0.4676666259765625,-0.8825531005859375,89098.33379975001,2.763844276547647,0.1221990048808738,0.4531934626624115,-0.01946949027478695,-0.01532750204205513,-0.02037501148879528,-0.006059326231479645,0.0168793797492981,0.0018768310546875,XArbitraryZVertical,0.0163399976362682,-0.2314268636333909,-0.9578971881051747,-0.1691379791807354,0.1095902174711227,-0.4378388524055481,-0.8923492431640625,0,0,0,-1,-1,watch,2026-03-03T15:38:39.121-08:00,58,0.9666666666666667,2026-03-03T15:14:50.513-08:00,0.04817426841822398,0
2026-03-03T15:48:18.719-08:00,89098.37377375001,0.1174774169921875,-0.4688568115234375,-0.87298583984375,89098.35378675001,2.763635795602676,0.1219000334201517,0.451816625074462,-0.1201260611414909,-0.02426330745220184,-0.007699296344071627,-6.362795829772949e-06,-0.03106603026390076,0.01042640209197998,XArbitraryZVertical,0.01630771745568286,-0.230747327033415,-0.9580256964135601,-0.1693415124808106,0.1093966290354729,-0.4366005957126617,-0.8929794430732727,0,0,0,-1,-1,watch,2026-03-03T15:38:39.121-08:00,58,0.9666666666666667,2026-03-03T15:14:50.513-08:00,0.04817426841822398,0
2026-03-03T15:48:18.739-08:00,89098.39375975,0.1137237548828125,-0.456451416015625,-0.883026123046875,89098.37377375001,2.764370567729668,0.1209847229299215,0.4485628157725128,-0.2044674009084702,-0.03407430648803711,0.02776080369949341,0.008727319538593292,-0.03518584370613098,0.02149885892868042,XArbitraryZVertical,0.01627237951811859,-0.2291131951718509,-0.9584332586650112,-0.1692572227681877,0.1087501049041748,-0.4336709678173065,-0.8944846987724304,0,0,0,-1,-1,watch,2026-03-03T15:38:39.121-08:00,58,0.9666666666666667,2026-03-03T15:14:50.513-08:00,0.04817426841822398,0
2026-03-03T15:48:18.759-08:00,89098.41374675001,0.10577392578125,-0.4066314697265625,-0.8936004638671875,89098.39375975,2.765525472032397,0.1197103594285385,0.4455081176640118,-0.11618422716856,-0.04156499728560448,0.0412273220717907,0.005955949425697327,-0.025534987449646,0.01290756464004517,XArbitraryZVertical,0.01609170883582747,-0.2275395090067137,-0.9588564864047245,-0.1690004203078668,0.107767827808857,-0.4309164583683014,-0.8959336280822754,0,0,0,-1,-1,watch,2026-03-03T15:38:39.121-08:00,58,0.9666666666666667,2026-03-03T15:14:50.513-08:00,0.04817426841822398,0
2026-03-03T15:48:18.779-08:00,89098.43373375,0.1008758544921875,-0.444427490234375,-0.8784637451171875,89098.41374675001,2.766904276853595,0.1182413406896729,0.4444450127653847,-0.02152491919696331,-0.0415164940059185,0.07396427541971207,-0.0007316097617149353,0.02332538366317749,0.0029449462890625,XArbitraryZVertical,0.01564739941303597,-0.2268974663028648,-0.9590937299162173,-0.1685582937460513,0.1065055429935455,-0.4299568831920624,-0.89654541015625,0,0,0,-1,-1,watch,2026-03-03T15:38:39.121-08:00,58,0.9666666666666667,2026-03-03T15:14:50.513-08:00,0.04817426841822398,0
2026-03-03T15:48:18.799-08:00,89098.45371975,0.1108551025390625,-0.4426727294921875,-0.8799896240234375,89098.43373375,2.76892236426026,0.1165871239000224,0.4438882140651587,-0.06690464913845062,-0.03875253349542618,0.1022276058793068,-0.004174292087554932,-0.01497340202331543,0.01849424839019775,XArbitraryZVertical,0.01513666145931451,-0.2264771365968969,-0.9593332969960044,-0.167804891370471,0.1050501465797424,-0.429454118013382,-0.8969579935073853,0,0,0,-1,-1,watch,2026-03-03T15:38:39.121-08:00,58,0.9666666666666667,2026-03-03T15:14:50.513-08:00,0.04817426841822398,0
2026-03-03T15:48:18.819-08:00,89098.47370675001,0.11871337890625,-0.405914306640625,-0.8764190673828125,89098.45371975,2.771585321858899,0.114667503162267,0.4422342568264638,-0.1204285994172096,-0.03804324939846992,0.1132245287299156,0.007445849478244781,-0.01471289992332458,0.01787281036376953,XArbitraryZVertical,0.01467558156093647,-0.2255070292192941,-0.9597401805440948,-0.1668235774295397,0.1034092679619789,-0.4279598593711853,-0.897862434387207,0,0,0,-1,-1,watch,2026-03-03T15:38:39.121-08:00,58,0.9666666666666667,2026-03-03T15:14:50.513-08:00,0.04817426841822398,0
2026-03-03T15:48:18.839-08:00,89098.49369375,0.123291015625,-0.41143798828125,-0.884490966796875,89098.47370675001,2.774278842248555,0.1128153050270276,0.4399092782215048,-0.135117694735527,-0.02909298241138458,0.09407548606395721,0.01685557514429092,0.01994305849075317,0.02261960506439209,XArbitraryZVertical,0.01431117866623729,-0.2242228215402542,-0.9602152985039101,-0.1658488273657579,0.1018578112125397,-0.4258573949337006,-0.8990386128425598,0,0,0,-1,-1,watch,2026-03-03T15:38:39.121-08:00,58,0.9666666666666667,2026-03-03T15:14:50.513-08:00,0.04817426841822398,0
2026-03-03T15:48:18.859-08:00,89098.51367975,0.062255859375,-0.41973876953125,-0.9045562744140625,89098.49369375,2.776605581927067,0.111110598370275,0.4371989420043934,-0.1471401005983353,-0.03792275860905647,0.05511415377259254,0.02283835411071777,0.0119655430316925,0.01586383581161499,XArbitraryZVertical,0.01400917652719725,-0.222769728647382,-0.9606958761287416,-0.1650483777811738,0.100452683866024,-0.4234035313129425,-0.90035480260849,0,0,0,-1,-1,watch,2026-03-03T15:38:39.121-08:00,58,0.9666666666666667,2026-03-03T15:14:50.513-08:00,0.04817426841822398,0
2026-03-03T15:48:18.885-08:00,89098.53366675001,0.107147216796875,-0.379058837890625,-0.9058837890625,89098.51367975,2.777333857044005,0.1104965040606593,0.4349468107156376,-0.07074847817420959,-0.009813693352043629,0.03318639472126961,-0.0377487912774086,0.001623392105102539,-0.003194510936737061,XArbitraryZVertical,0.01400735829921089,-0.2216369170092617,-0.9609883022566721,-0.1648706375463347,0.1000046581029892,-0.4213621616363525,-0.9013617634773254,0,0,0,-1,-1,watch,2026-03-03T15:38:39.121-08:00,58,0.9666666666666667,2026-03-03T15:14:50.513-08:00,0.04817426841822398,0
2026-03-03T15:48:18.899-08:00,89098.55365375,0.0894622802734375,-0.4143524169921875,-0.9051361083984375,89098.53366675001,2.777601800671861,0.1103454040338452,0.4346637515725136,0.0130730951204896,0.000826666597276926,-0.009769815020263195,0.007265627384185791,0.04204663634300232,-0.004388391971588135,XArbitraryZVertical,0.01399107644023375,-0.2214871855028392,-0.9610400450377516,-0.1647716513375101,0.09988158941268921,-0.4211054444313049,-0.9014953374862671,0,0,0,-1,-1,watch,2026-03-03T15:38:39.121-08:00,58,0.9666666666666667,2026-03-03T15:14:50.513-08:00,0.04817426841822398,0
2026-03-03T15:48:18.919-08:00,89098.57363975,0.0906829833984375,-0.4452972412109375,-0.905609130859375,89098.55365375,2.777532176733315,0.1105137055909596,0.4349876840622861,-0.003255100920796394,0.01070594601333141,0.001657653599977493,-0.01055596768856049,0.007046788930892944,-0.003793179988861084,XArbitraryZVertical,0.01403374798421533,-0.2216564802044433,-0.9610004592402002,-0.1647715979203111,0.1000182628631592,-0.4213992357254028,-0.9013429284095764,0,0,0,-1,-1,watch,2026-03-03T15:38:39.121-08:00,58,0.9666666666666667,2026-03-03T15:14:50.513-08:00,0.04817426841822398,0
2026-03-03T15:48:18.939-08:00,89098.59362675001,0.1051025390625,-0.4233551025390625,-0.9041290283203125,89098.57363975,2.77738934360174,0.1108955934903438,0.4340794078303664,-0.05922063067555428,0.0179569348692894,-0.0164254754781723,-0.0097217857837677,-0.02472186088562012,-0.003924429416656494,XArbitraryZVertical,0.01428694695167856,-0.2212545060980161,-0.9610775504237208,-0.1648396975044885,0.1004047766327858,-0.4205753803253174,-0.9016846418380737,0,0,0,-1,-1,watch,2026-03-03T15:38:39.121-08:00,58,0.9666666666666667,2026-03-03T15:14:50.513-08:00,0.04817426841822398,0
2026-03-03T15:48:18.959-08:00,89098.61361375,0.1063995361328125,-0.3999786376953125,-0.9094696044921875,89098.59362675001,2.777055461202363,0.1113547517017739,0.4335653023341144,0.01455079484730959,0.01174830738455057,-0.01426432095468044,0.004259742796421051,-0.003246217966079712,-0.002275764942169189,XArbitraryZVertical,0.0145191016172997,-0.2210488228923512,-0.9610985505516426,-0.1649731133070634,0.1008428037166595,-0.4201088845729828,-0.9018532037734985,0,0,0,-1,-1,watch,2026-03-03T15:38:39.121-08:00,58,0.9666666666666667,2026-03-03T15:14:50.513-08:00,0.04817426841822398,0
2026-03-03T15:48:18.979-08:00,89098.63359975,0.10101318359375,-0.437255859375,-0.9154510498046875,89098.61361375,2.776602466838557,0.1116877173582429,0.434776593320989,0.09658041596412659,0.008513914421200752,-0.01365558989346027,0.005313262343406677,0.02122914791107178,-0.008156359195709229,XArbitraryZVertical,0.01451470459314192,-0.2216589807546517,-0.9609366676437198,-0.1650979040298147,0.101086288690567,-0.4212077856063843,-0.9013132452964783,0,0,0,-1,-1,watch,2026-03-03T15:38:39.121-08:00,58,0.9666666666666667,2026-03-03T15:14:50.513-08:00,0.04817426841822398,0
2026-03-03T15:48:18.999-08:00,89098.65358675001,0.0980072021484375,-0.459716796875,-0.914520263671875,89098.63359975,2.776117237507632,0.111970971834044,0.436377215962193,0.04794541373848915,0.002084294566884637,-0.02525953762233257,-0.0002529248595237732,-0.01459690928459167,-0.01483756303787231,XArbitraryZVertical,0.01444572064084108,-0.22245133472872,-0.9607327249394131,-0.1652252891752527,0.101266123354435,-0.4226589500904083,-0.9006134271621704,0,0,0,-1,-1,watch,2026-03-03T15:38:39.121-08:00,58,0.9666666666666667,2026-03-03T15:14:50.513-08:00,0.04817426841822398,0
2026-03-03T15:48:19.019-08:00,89098.67357375,0.1016998291015625,-0.4470367431640625,-0.9144439697265625,89098.65358675001,2.775441788245423,0.112064313823894,0.4364601048934567,-0.007829435169696808,-0.01687178574502468,-0.02791350893676281,-0.003339067101478577,-0.03698274493217468,-0.01395106315612793,XArbitraryZVertical,0.01440757926924209,-0.2225035578581412,-0.960667804498994,-0.1655355029968608,0.1013462692499161,-0.4227340817451477,-0.9005692005157471,0,0,0,-1,-1,watch,2026-03-03T15:38:39.121-08:00,58,0.9666666666666667,2026-03-03T15:14:50.513-08:00,0.04817426841822398,0
2026-03-03T15:48:19.039-08:00,89098.69355975001,0.1011505126953125,-0.4062347412109375,-0.9135589599609375,89098.67357375,2.775590094954373,0.111513970827481,0.4363869791704111,0.02096404135227203,-0.03002893179655075,0.0118790864944458,0.0008457675576210022,-0.02436894178390503,-0.01378846168518066,XArbitraryZVertical,0.01416664957331162,-0.2224219928531927,-0.9606913836797015,-0.1655288584352263,0.1008540764451027,-0.4226678013801575,-0.9006555080413818,0,0,0,-1,-1,watch,2026-03-03T15:38:39.121-08:00,58,0.9666666666666667,2026-03-03T15:14:50.513-08:00,0.04817426841822398,0
2026-03-03T15:48:19.059-08:00,89098.71354675,0.0927886962890625,-0.4337005615234375,-0.90142822265625,89098.69355975001,2.775738710129477,0.1108902363891708,0.4375215274479454,0.1025247648358345,-0.02990464493632317,0.02514524757862091,0.0009113624691963196,0.01746103167533875,-0.01331782341003418,XArbitraryZVertical,0.01377628220523354,-0.222911805498419,-0.9605929070662995,-0.1654743092382869,0.1002391502261162,-0.4236957430839539,-0.9002410769462585,0,0,0,-1,-1,watch,2026-03-03T15:38:39.121-08:00,58,0.9666666666666667,2026-03-03T15:14:50.513-08:00,0.04817426841822398,0
2026-03-03T15:48:19.079-08:00,89098.73353375001,0.097869873046875,-0.460479736328125,-0.8931427001953125,89098.71354675,2.776204224527336,0.1102487671326412,0.4395932348759287,0.07560544461011887,-0.02481844276189804,0.04212986677885056,-0.006776154041290283,-0.00812917947769165,-0.00199735164642334,XArbitraryZVertical,0.01332443844887755,-0.2238460305091109,-0.9604246946130924,-0.1652265716464287,0.09956486523151398,-0.4255714118480682,-0.8994308114051819,0,0,0,-1,-1,watch,2026-03-03T15:38:39.121-08:00,58,0.9666666666666667,2026-03-03T15:14:50.513-08:00,0.04817426841822398,0
2026-03-03T15:48:19.099-08:00,89098.75351975001,0.1042938232421875,-0.431610107421875,-0.8926239013671875,89098.73353375001,2.776860766155769,0.109542688107068,0.440155513661275,-0.01951227895915508,-0.02042905427515507,0.02836438827216625,-0.001033708453178406,-0.0343995988368988,0.006120204925537109,XArbitraryZVertical,0.01300585233698745,-0.224052228394971,-0.9604259887764621,-0.1649643836435872,0.0989035964012146,-0.4260801672935486,-0.8992629051208496,0,0,0,-1,-1,watch,2026-03-03T15:38:39.121-08:00,58,0.9666666666666667,2026-03-03T15:14:50.513-08:00,0.04817426841822398,0
2026-03-03T15:48:19.119-08:00,89098.77350675,0.1094970703125,-0.407867431640625,-0.89727783203125,89098.75351975001,2.777335071613739,0.1089409678283847,0.4394239963502826,-0.04292315244674683,-0.02043982222676277,0.003373128361999989,0.005897499620914459,-0.006191879510879517,0.007007956504821777,XArbitraryZVertical,0.01283884475567368,-0.2236498160861086,-0.9605438308849813,-0.1648375747630687,0.09839633107185364,-0.4254182577133179,-0.8996318578720093,0,0,0,-1,-1,watch,2026-03-03T15:38:39.121-08:00,58,0.9666666666666667,2026-03-03T15:14:50.513-08:00,0.04817426841822398,0
2026-03-03T15:48:19.139-08:00,89098.79349375001,0.1042022705078125,-0.409820556640625,-0.9001007080078125,89098.77350675,2.777221086463098,0.1085377691902801,0.4389005610476395,-0.01030519884079695,-0.02452434599399567,-0.01561605371534824,0.01143937557935715,0.01707702875137329,0.002614915370941162,XArbitraryZVertical,0.01268169931379788,-0.2233670059905157,-0.9605905496271746,-0.1649613899285406,0.09805770218372345,-0.4249444901943207,-0.8998926877975464,0,0,0,-1,-1,watch,2026-03-03T15:38:39.121-08:00,58,0.9666666666666667,2026-03-03T15:14:50.513-08:00,0.04817426841822398,0
2026-03-03T15:48:19.159-08:00,89098.81347975001,0.0994415283203125,-0.437347412109375,-0.89251708984375,89098.79349375001,2.777108064303027,0.1081562447321786,0.4387529438293122,-0.02231072820723057,-0.02039245143532753,0.01799224130809307,0.006481148302555084,0.01499029994010925,-0.0001083016395568848,XArbitraryZVertical,0.01249972447194244,-0.2232656539169217,-0.9605986970929835,-0.1650650184906587,0.09772113710641861,-0.4248108565807343,-0.8999924063682556,0,0,0,-1,-1,watch,2026-03-03T15:38:39.121-08:00,58,0.9666666666666667,2026-03-03T15:14:50.513-08:00,0.04817426841822398,0
2026-03-03T15:48:19.179-08:00,89098.83346675,0.096649169921875,-0.416534423828125,-0.879058837890625,89098.81347975001,2.777387245762764,0.1076215502498047,0.4381386281214837,-0.02407409623265266,-0.01193739753216505,0.01339533738791943,0.002173632383346558,-0.01309278607368469,0.007786750793457031,XArbitraryZVertical,0.01233182759023051,-0.2229260529969625,-0.960687641490901,-0.1650184967679469,0.09726791083812714,-0.4242546558380127,-0.9003037810325623,0,0,0,-1,-1,watch,2026-03-03T15:38:39.121-08:00,58,0.9666666666666667,2026-03-03T15:14:50.513-08:00,0.04817426841822398,0
2026-03-03T15:48:19.199-08:00,89098.85345375001,0.098602294921875,-0.43109130859375,-0.8721160888671875,89098.83346675,2.77821481996117,0.1070823801661488,0.4380674219234775,8.16624378785491e-05,-0.004055756609886885,0.05255847051739693,-0.0001365393400192261,0.007655739784240723,0.02132731676101685,XArbitraryZVertical,0.0121717346171752,-0.222842469072903,-0.9607664936328648,-0.1646843239488056,0.09678570926189423,-0.4241901636123657,-0.9003861546516418,0,0,0,-1,-1,watch,2026-03-03T15:38:39.121-08:00,58,0.9666666666666667,2026-03-03T15:14:50.513-08:00,0.04817426841822398,0
2026-03-03T15:48:19.219-08:00,89098.87343975001,0.1020965576171875,-0.421234130859375,-0.8719635009765625,89098.85345375001,2.779231839420295,0.1067053048401204,0.438059512844944,-0.01927623338997364,0.008310449309647083,0.01614243164658546,0.002155758440494537,-0.006908297538757324,0.02830988168716431,XArbitraryZVertical,0.01210464107485305,-0.2228015243762906,-0.9608531452318095,-0.1642380654915739,0.09644654393196106,-0.4241830110549927,-0.900425910949707,0,0,0,-1,-1,watch,2026-03-03T15:38:39.121-08:00,58,0.9666666666666667,2026-03-03T15:14:50.513-08:00,0.04817426841822398,0
2026-03-03T15:48:19.239-08:00,89098.89342675,0.109375,-0.4213409423828125,-0.8826751708984375,89098.87343975001,2.779935094870669,0.1065647185330117,0.4375385185406521,-0.04140736907720566,0.001515576848760247,0.02385474555194378,0.005753122270107269,0.002476990222930908,0.02869564294815063,XArbitraryZVertical,0.01216405862493213,-0.222536472676056,-0.960964912988854,-0.163939389645512,0.09634345769882202,-0.4237111508846283,-0.9006590843200684,0,0,0,-1,-1,watch,2026-03-03T15:38:39.121-08:00,58,0.9666666666666667,2026-03-03T15:14:50.513-08:00,0.04817426841822398,0
2026-03-03T15:48:19.259-08:00,89098.91341375001,0.097564697265625,-0.418365478515625,-0.8811798095703125,89098.89342675,2.78067601070753,0.1063483816624685,0.4364716392122987,-0.06761758029460907,0.004234247840940952,0.03746844828128815,0.01317846775054932,0.001403570175170898,0.01845371723175049,XArbitraryZVertical,0.01224193540529808,-0.2220038075909096,-0.9611354213204012,-0.1636553405876965,0.09619653224945068,-0.4227445423603058,-0.901128888130188,0,0,0,-1,-1,watch,2026-03-03T15:38:39.121-08:00,58,0.9666666666666667,2026-03-03T15:14:50.513-08:00,0.04817426841822398,0
2026-03-03T15:48:19.279-08:00,89098.93339975001,0.0954437255859375,-0.3969268798828125,-0.896087646484375,89098.91341375001,2.781661100124701,0.1060816972471464,0.4352572728043486,-0.0400456041097641,0.01193268038332462,0.04030138626694679,0.001554198563098907,0.003278225660324097,0.0204845666885376,XArbitraryZVertical,0.01233592322846494,-0.221394814680015,-0.9613408787991319,-0.1632658910445743,0.09601049870252609,-0.4216437041759491,-0.9016643166542053,0,0,0,-1,-1,watch,2026-03-03T15:38:39.121-08:00,58,0.9666666666666667,2026-03-03T15:14:50.513-08:00,0.04817426841822398,0
2026-03-03T15:48:19.299-08:00,89098.95338675,0.0890350341796875,-0.4129180908203125,-0.892822265625,89098.93339975001,2.782907166983346,0.105904920817812,0.4353120814803895,0.02081037685275078,0.01813007332384586,0.08220838010311127,-0.0004049241542816162,0.02476650476455688,0.005570709705352783,XArbitraryZVertical,0.01238378970661307,-0.2213989129995741,-0.9614380757070992,-0.1626841082411916,0.09584866464138031,-0.4216933846473694,-0.901658296585083,0,0,0,-1,-1,watch,2026-03-03T15:38:39.121-08:00,58,0.9666666666666667,2026-03-03T15:14:50.513-08:00,0.04817426841822398,0
2026-03-03T15:48:19.319-08:00,89098.97337375001,0.079742431640625,-0.429412841796875,-0.8797454833984375,89098.95338675,2.784628562310895,0.1056232834778759,0.4359413703868115,0.0114415530115366,0.02637973055243492,0.06514441967010498,-0.006531693041324615,0.009345829486846924,0.008598983287811279,XArbitraryZVertical,0.01238094330615947,-0.2216666628032757,-0.9615155035513658,-0.1618596657722774,0.09556671977043152,-0.4222639203071594,-0.9014211893081665,0,0,0,-1,-1,watch,2026-03-03T15:38:39.121-08:00,58,0.9666666666666667,2026-03-03T15:14:50.513-08:00,0.04817426841822398,0
2026-03-03T15:48:19.339-08:00,89098.99335975001,0.1006317138671875,-0.4397735595703125,-0.8758697509765625,89098.97337375001,2.785982631526845,0.1058205691022971,0.4355937497986779,-0.06616544723510742,0.04231350868940353,0.05700910463929176,-0.0160176157951355,-0.007464081048965454,0.02180278301239014,XArbitraryZVertical,0.01265779708848969,-0.2215076776638045,-0.9616590202979605,-0.1612022848241523,0.09576005488634109,-0.4219487905502319,-0.9015482664108276,0,0,0,-1,-1,watch,2026-03-03T15:38:39.121-08:00,58,0.9666666666666667,2026-03-03T15:14:50.513-08:00,0.04817426841822398,0
2026-03-03T15:48:19.359-08:00,89099.01334675,0.1028594970703125,-0.4158935546875,-0.8961639404296875,89098.99335975001,2.78743813702241,0.1061199980608062,0.4335113567009311,-0.1427379846572876,0.03846317529678345,0.03704418241977692,0.004508860409259796,-0.0197136402130127,0.02652156352996826,XArbitraryZVertical,0.01315356059385396,-0.2205251435694843,-0.9619851938371543,-0.1605617359858353,0.0961228609085083,-0.4200599193572998,-0.9023913145065308,0,0,0,-1,-1,watch,2026-03-03T15:38:39.121-08:00,58,0.9666666666666667,2026-03-03T15:14:50.513-08:00,0.04817426841822398,0
2026-03-03T15:48:19.379-08:00,89099.03333375001,0.094512939453125,-0.40679931640625,-0.9173126220703125,89099.01334675,2.788477859006508,0.1064069462288052,0.4306369603725714,-0.139011338353157,0.03166129440069199,0.02967224456369877,0.006349869072437286,0.001556128263473511,0.007396578788757324,XArbitraryZVertical,0.01366857874314805,-0.2191641101037924,-0.9623563438794497,-0.1601574865207948,0.09650963544845581,-0.4174496829509735,-0.9035605192184448,0,0,0,-1,-1,watch,2026-03-03T15:38:39.121-08:00,58,0.9666666666666667,2026-03-03T15:14:50.513-08:00,0.04817426841822398,0
2026-03-03T15:48:19.399-08:00,89099.05331975,0.0987091064453125,-0.394622802734375,-0.9124603271484375,89099.03333375001,2.789274059356077,0.10673392542097,0.4289190621454243,-0.04011422768235207,0.03166439011693001,0.02615576051175594,-0.00236838310956955,0.009088695049285889,-0.01307195425033569,XArbitraryZVertical,0.01406964343950961,-0.2183614360122877,-0.9625900588450381,-0.1598146928415888,0.09688133001327515,-0.4158880114555359,-0.9042406678199768,0,0,0,-1,-1,watch,2026-03-03T15:38:39.121-08:00,58,0.9666666666666667,2026-03-03T15:14:50.513-08:00,0.04817426841822398,0
2026-03-03T15:48:19.420-08:00,89099.07330675001,0.0976104736328125,-0.4049835205078125,-0.899322509765625,89099.05331975,2.789664700934498,0.1072261221200524,0.4291870180376164,0.05320391431450844,0.03535757958889008,0.01592014543712139,0.001394659280776978,0.02150887250900269,-0.008378267288208008,XArbitraryZVertical,0.01432480095184343,-0.2185263847767633,-0.9625909781177664,-0.1595610633784806,0.09731445461511612,-0.4161317050457001,-0.9040820598602295,0,0,0,-1,-1,watch,2026-03-03T15:38:39.121-08:00,58,0.9666666666666667,2026-03-03T15:14:50.513-08:00,0.04817426841822398,0
2026-03-03T15:48:19.439-08:00,89099.09329375,0.096466064453125,-0.465484619140625,-0.87200927734375,89099.07330675001,2.789012527237743,0.1094858556885806,0.434961810312595,0.3673135340213776,0.07238762080669403,-0.01537361741065979,-0.001482479274272919,0.01639223098754883,0.002133548259735107,XArbitraryZVertical,0.01481386513176242,-0.2214780268457276,-0.9619407252391073,-0.159367576223133,0.09909295290708542,-0.4213757812976837,-0.9014560580253601,0,0,0,-1,-1,watch,2026-03-03T15:38:39.121-08:00,58,0.9666666666666667,2026-03-03T15:14:50.513-08:00,0.04817426841822398,0
2026-03-03T15:48:19.459-08:00,89099.11328025001,0.0932769775390625,-0.385009765625,-0.8896484375,89099.09329375,2.789790085269322,0.1099966320716945,0.4357740250822177,0.1451511532068253,0.1068316772580147,-0.074596107006073,-0.003049701452255249,-0.04337242245674133,0.02905559539794922,XArbitraryZVertical,0.0150716168521699,-0.221901807580634,-0.9619164158932203,-0.1589002588227954,0.09951578080654144,-0.4221122264862061,-0.9010648727416992,0,0,0,-1,-1,watch,2026-03-03T15:38:39.121-08:00,58,0.9666666666666667,2026-03-03T15:14:50.513-08:00,0.04817426841822398,0
2026-03-03T15:48:19.478-08:00,89099.13326725,0.084716796875,-0.4471893310546875,-0.9002532958984375,89099.11328025001,2.790643549153616,0.1111879600204613,0.4364049644659633,-0.0174227636307478,0.0606556124985218,0.1271261274814606,-0.00728260725736618,0.03767433762550354,0.0110323429107666,XArbitraryZVertical,0.01568191349126976,-0.2222918834755421,-0.9619107419999635,-0.1583287631286729,0.1005595996975899,-0.4226841032505035,-0.9006807804107666,0,0,0,-1,-1,watch,2026-03-03T15:38:39.121-08:00,58,0.9666666666666667,2026-03-03T15:14:50.513-08:00,0.04817426841822398,0
2026-03-03T15:48:19.511-08:00,89099.15325425001,0.1053314208984375,-0.417877197265625,-0.89849853515625,89099.13326725,2.792871063024847,0.1113294659456858,0.4354690116585574,-0.09809745848178864,0.03527064621448517,0.09389983862638474,-0.01601415872573853,-0.02535364031791687,0.0008060932159423828,XArbitraryZVertical,0.01608223765744818,-0.2218371018374598,-0.9621804624434098,-0.157284171190675,0.1007309556007385,-0.4218356907367706,-0.9010593295097351,0,0,0,-1,-1,watch,2026-03-03T15:38:39.121-08:00,58,0.9666666666666667,2026-03-03T15:14:50.513-08:00,0.04817426841822398,0
2026-03-03T15:48:19.519-08:00,89099.17324025001,0.11077880859375,-0.417388916015625,-0.8933868408203125,89099.15325425001,2.794995583218554,0.1110629152432697,0.4336564534607954,-0.09606271237134933,0.02993461862206459,0.06370813399553299,0.004756063222885132,0.002314388751983643,0.003346025943756104,XArbitraryZVertical,0.01635265619447127,-0.2209305475981622,-0.9625329136089836,-0.1563736199833973,0.1005753576755524,-0.4201915860176086,-0.9018445611000061,0,0,0,-1,-1,watch,2026-03-03T15:38:39.121-08:00,58,0.9666666666666667,2026-03-03T15:14:50.513-08:00,0.04817426841822398,0
2026-03-03T15:48:19.539-08:00,89099.19322725001,0.0877685546875,-0.430267333984375,-0.8972930908203125,89099.17324025001,2.795915786852258,0.1113242722972864,0.4321847089680695,-0.07203398644924164,0.0374959334731102,0.02544525265693665,0.009899154305458069,0.001466721296310425,0.009045064449310303,XArbitraryZVertical,0.01671216485249763,-0.2202379843981416,-0.9627512086948798,-0.1559684153199599,0.1008796542882919,-0.4188556373119354,-0.902431845664978,0,0,0,-1,-1,watch,2026-03-03T15:38:39.121-08:00,58,0.9666666666666667,2026-03-03T15:14:50.513-08:00,0.04817426841822398,0
2026-03-03T15:48:19.558-08:00,89099.21321425,0.0776214599609375,-0.45355224609375,-0.884765625,89099.19322725001,2.797471986858146,0.1113011554626896,0.4306830006492713,-0.09762483835220337,0.01781393960118294,0.0956961065530777,-0.01315997540950775,-0.01277580857276917,0.005765199661254883,XArbitraryZVertical,0.01700659472404134,-0.2195031656347915,-0.9630235094257218,-0.1552894197785829,0.1009285375475883,-0.4174915254116058,-0.9030582904815674,0,0,0,-1,-1,watch,2026-03-03T15:38:39.121-08:00,58,0.9666666666666667,2026-03-03T15:14:50.513-08:00,0.04817426841822398,0
2026-03-03T15:48:19.578-08:00,89099.23320025,0.0913543701171875,-0.3866119384765625,-0.8754119873046875,89099.21321425,2.79986020905924,0.1107726026698171,0.4280660973753132,-0.1859524697065353,0.02909986674785614,0.07590179145336151,-0.022950179874897,-0.03844007849693298,0.01942861080169678,XArbitraryZVertical,0.01724638243715728,-0.2181867004504641,-0.9634750976202642,-0.1543144575180969,0.1005716472864151,-0.415112167596817,-0.9041942358016968,0,0,0,-1,-1,watch,2026-03-03T15:38:39.121-08:00,58,0.9666666666666667,2026-03-03T15:14:50.513-08:00,0.04817426841822398,0
2026-03-03T15:48:19.602-08:00,89099.25318725001,0.13421630859375,-0.381622314453125,-0.870086669921875,89099.23320025,2.800867126002633,0.1109101947549209,0.4242541950451458,-0.1739141941070557,0.03257118165493011,-0.06082762777805328,-0.009516090154647827,0.02502927184104919,0.03033453226089478,XArbitraryZVertical,0.01775988444691548,-0.21635932667369,-0.9639304729512455,-0.153984285724568,0.1008704602718353,-0.4116412103176117,-0.9057464599609375,0,0,0,-1,-1,watch,2026-03-03T15:38:39.121-08:00,58,0.9666666666666667,2026-03-03T15:14:50.513-08:00,0.04817426841822398,0
2026-03-03T15:48:19.619-08:00,89099.27317425,0.111328125,-0.4012451171875,-0.8916473388671875,89099.25318725001,2.802807506644884,0.1109006490630021,0.4211458160851754,-0.1785290986299515,0.03415334597229958,0.07628670334815979,0.03321337699890137,0.02718409895896912,0.03692805767059326,XArbitraryZVertical,0.01823877997965139,-0.2148487497394293,-0.9643862033068137,-0.1531879584774179,0.1010029390454292,-0.4088064134120941,-0.9070147275924683,0,0,0,-1,-1,watch,2026-03-03T15:38:39.121-08:00,58,0.9666666666666667,2026-03-03T15:14:50.513-08:00,0.04817426841822398,0
2026-03-03T15:48:19.639-08:00,89099.29316025,0.1400909423828125,-0.37628173828125,-0.9032135009765625,89099.27317425,2.804498096368536,0.1108831143184053,0.4181787231146832,-0.1278818100690842,0.03849994391202927,0.07016025483608246,0.01020732522010803,0.004851669073104858,0.01657068729400635,XArbitraryZVertical,0.0186718347869656,-0.2134065299198575,-0.964806257320035,-0.1525056585801837,0.1011208146810532,-0.4060967862606049,-0.9082180261611938,0,0,0,-1,-1,watch,2026-03-03T15:38:39.121-08:00,58,0.9666666666666667,2026-03-03T15:14:50.513-08:00,0.04817426841822398,0
2026-03-03T15:48:19.658-08:00,89099.31314725001,0.14801025390625,-0.4264068603515625,-0.8967742919921875,89099.29316025,2.806228769636145,0.110852495267421,0.415971370335164,-0.1238272339105606,0.04008758813142776,0.06640857458114624,0.03889903426170349,0.02779689431190491,0.005896329879760742,XArbitraryZVertical,0.01903414459674658,-0.2123271149214312,-0.9651530357403713,-0.1517709967913059,0.1011919230222702,-0.4040786623954773,-0.9091097712516785,0,0,0,-1,-1,watch,2026-03-03T15:38:39.121-08:00,58,0.9666666666666667,2026-03-03T15:14:50.513-08:00,0.04817426841822398,0
2026-03-03T15:48:19.679-08:00,89099.33313425,0.147216796875,-0.40228271484375,-0.89678955078125,89099.31314725001,2.80756495114943,0.1112833832559982,0.4130327119727775,-0.1656208336353302,0.06141048669815063,0.01135442219674587,0.04629518836736679,-0.02501800656318665,0.01346802711486816,XArbitraryZVertical,0.01963919076704942,-0.2109340082465346,-0.9655344824622667,-0.1512094641134106,0.1017150655388832,-0.4013888537883759,-0.9102423191070557,0,0,0,-1,-1,watch,2026-03-03T15:38:39.121-08:00,58,0.9666666666666667,2026-03-03T15:14:50.513-08:00,0.04817426841822398,0
2026-03-03T15:48:19.698-08:00,89099.35312025,0.13702392578125,-0.384033203125,-0.921966552734375,89099.33313425,2.808181589661932,0.1123011117834136,0.4097647027950441,-0.1511630713939667,0.06361649930477142,0.02537043951451778,0.04442895948886871,-0.003889203071594238,0.01464736461639404,XArbitraryZVertical,0.0204790443113632,-0.2094329177663833,-0.9658846292939985,-0.150948237567801,0.1027878448367119,-0.3983935117721558,-0.911436915397644,0,0,0,-1,-1,watch,2026-03-03T15:38:39.121-08:00,58,0.9666666666666667,2026-03-03T15:14:50.513-08:00,0.04817426841822398,0
2026-03-03T15:48:19.718-08:00,89099.37310725001,0.1017608642578125,-0.3552398681640625,-0.9482421875,89099.35312025,2.80880873191169,0.1133215491097122,0.4077165298206051,-0.02318193763494492,0.06244886666536331,0.004267151467502117,0.0332140177488327,0.01248085498809814,-0.009826123714447021,XArbitraryZVertical,0.02121497013050336,-0.2085179219333301,-0.966116589083566,-0.1506288820881469,0.1038099154829979,-0.3965140581130981,-0.912140429019928,0,0,0,-1,-1,watch,2026-03-03T15:38:39.121-08:00,58,0.9666666666666667,2026-03-03T15:14:50.513-08:00,0.04817426841822398,0
2026-03-03T15:48:19.739-08:00,89099.39309425,0.10040283203125,-0.3668365478515625,-0.9438323974609375,89099.37310725001,2.80874951003095,0.1146169531319698,0.4092644816488546,0.1687769293785095,0.05999411642551422,0.01316239777952433,-0.003160223364830017,0.0426948070526123,-0.03684782981872559,XArbitraryZVertical,0.021700346616134,-0.2093608138341086,-0.9659507013662521,-0.1504535621083008,0.1049210876226425,-0.3979346752166748,-0.9113942980766296,0,0,0,-1,-1,watch,2026-03-03T15:38:39.121-08:00,58,0.9666666666666667,2026-03-03T15:14:50.513-08:00,0.04817426841822398,0
2026-03-03T15:48:19.759-08:00,89099.41308025,0.12701416015625,-0.49432373046875,-0.9223480224609375,89099.39309425,2.808108236784687,0.1160614445806047,0.413867608177895,0.2549927830696106,0.05290468409657478,-0.01103335246443748,-0.005621403455734253,0.03531685471534729,-0.03441965579986572,XArbitraryZVertical,0.02193062628176407,-0.2116900752361855,-0.9654452728617694,-0.1504052586156386,0.1060242429375648,-0.4021534025669098,-0.9094127416610718,0,0,0,-1,-1,watch,2026-03-03T15:38:39.121-08:00,58,0.9666666666666667,2026-03-03T15:14:50.513-08:00,0.04817426841822398,0
2026-03-03T15:48:19.778-08:00,89099.43306725001,0.10540771484375,-0.468536376953125,-0.9040374755859375,89099.41308025,2.808670775861176,0.1162100562344005,0.4160248360098173,-0.1005741953849792,0.00639259023591876,-0.01915721409022808,0.02095561474561691,-0.0901961624622345,-0.01381480693817139,XArbitraryZVertical,0.02187458911550024,-0.2127320428702841,-0.9652773594632682,-0.1500207969280296,0.1060585528612137,-0.4041275680065155,-0.9085331559181213,0,0,0,-1,-1,watch,2026-03-03T15:38:39.121-08:00,58,0.9666666666666667,2026-03-03T15:14:50.513-08:00,0.04817426841822398,0
2026-03-03T15:48:19.799-08:00,89099.45305425,0.1157989501953125,-0.3968963623046875,-0.9168243408203125,89099.43306725001,2.808090576260428,0.1167178368176587,0.4125098390118995,-0.1936815977096558,0.01460797619074583,0.01409093104302883,-0.00127691775560379,-0.06762650609016418,0.005846977233886719,XArbitraryZVertical,0.0223637094692429,-0.2110868369437077,-0.9655674354189455,-0.1504056358851992,0.1066846400499344,-0.4009099006652832,-0.9098844528198242,0,0,0,-1,-1,watch,2026-03-03T15:38:39.121-08:00,58,0.9666666666666667,2026-03-03T15:14:50.513-08:00,0.04817426841822398,0
2026-03-03T15:48:19.818-08:00,89099.47304025,0.1112213134765625,-0.386627197265625,-0.93804931640625,89099.45305425,2.808546077346189,0.1168363911079751,0.4095851826656455,-0.07340045273303986,0.004126556683331728,-0.005327174440026283,0.008870221674442291,0.001332491636276245,-0.005791962146759033,XArbitraryZVertical,0.02272310012048565,-0.2096842165334694,-0.9658801489958937,-0.1503049428412803,0.1069287285208702,-0.3982288539409637,-0.9110323786735535,0,0,0,-1,-1,watch,2026-03-03T15:38:39.121-08:00,58,0.9666666666666667,2026-03-03T15:14:50.513-08:00,0.04817426841822398,0
2026-03-03T15:48:19.839-08:00,89099.49302725001,0.0984954833984375,-0.352020263671875,-0.9217071533203125,89099.47304025,2.808567965281203,0.1167209716532793,0.4096856939438585,0.09118795394897461,-0.01171925198286772,0.01007495075464249,0.004402399063110352,0.01169383525848389,-0.02704435586929321,XArbitraryZVertical,0.02266092096957049,-0.2097236293492357,-0.9658735525483657,-0.150301971476297,0.1068189218640327,-0.3983210623264313,-0.9110049605369568,0,0,0,-1,-1,watch,2026-03-03T15:38:39.121-08:00,58,0.9666666666666667,2026-03-03T15:14:50.513-08:00,0.04817426841822398,0
2026-03-03T15:48:19.859-08:00,89099.51301425,0.0776824951171875,-0.4263153076171875,-0.897491455078125,89099.49302725001,2.809146079557177,0.1161161230246322,0.4129752354243081,0.198028564453125,-0.01653100177645683,0.06875262409448624,-0.007620006799697876,0.0493159294128418,-0.01194411516189575,XArbitraryZVertical,0.02214424621719886,-0.2112537078156164,-0.9656085260054681,-0.1499385596261665,0.106115497648716,-0.4013362228870392,-0.909762978553772,0,0,0,-1,-1,watch,2026-03-03T15:38:39.121-08:00,58,0.9666666666666667,2026-03-03T15:14:50.513-08:00,0.04817426841822398,0
2026-03-03T15:48:19.878-08:00,89099.53300025001,0.098846435546875,-0.4046630859375,-0.9055938720703125,89099.51301425,2.809700374081959,0.11547458671547,0.4158357836826205,0.06372766196727753,-0.03343826159834862,0.03204345703125,-0.02771662175655365,-0.02236068248748779,0.01119536161422729,XArbitraryZVertical,0.0216454714782883,-0.2125748815577069,-0.9653807793700855,-0.1496105295722784,0.1053991243243217,-0.4039546251296997,-0.9086867570877075,0,0,0,-1,-1,watch,2026-03-03T15:38:39.121-08:00,58,0.9666666666666667,2026-03-03T15:14:50.513-08:00,0.04817426841822398,0
2026-03-03T15:48:19.899-08:00,89099.55298725,0.088226318359375,-0.3774871826171875,-0.9210205078125,89099.53300025001,2.809924979262046,0.114658211945636,0.4160262449875565,-0.02068149484694004,-0.03428822755813599,-0.006518783513456583,-0.00580202043056488,-0.0005342066287994385,0.003102242946624756,XArbitraryZVertical,0.02125881624280757,-0.2126029802908583,-0.9653878153181097,-0.1495803395490932,0.1046484559774399,-0.4041288495063782,-0.9086960554122925,0,0,0,-1,-1,watch,2026-03-03T15:38:39.121-08:00,58,0.9666666666666667,2026-03-03T15:14:50.513-08:00,0.04817426841822398,0
2026-03-03T15:48:19.919-08:00,89099.57297425001,0.0996551513671875,-0.38555908203125,-0.9216766357421875,89099.55298725,2.81021045225283,0.1136619825752545,0.4154286540601891,-0.04427878931164742,-0.0473199374973774,0.02223500981926918,-0.01554418355226517,0.02609497308731079,-0.01198083162307739,XArbitraryZVertical,0.0208598631558902,-0.2122381404450829,-0.965477715720495,-0.1495750079164148,0.1037705093622208,-0.4035821557044983,-0.9090396761894226,0,0,0,-1,-1,watch,2026-03-03T15:38:39.121-08:00,58,0.9666666666666667,2026-03-03T15:14:50.513-08:00,0.04817426841822398,0
2026-03-03T15:48:19.939-08:00,89099.59296025001,0.0932159423828125,-0.3874053955078125,-0.9138641357421875,89099.57297425001,2.810841913532936,0.112355472287347,0.4144670837938974,-0.05021293461322784,-0.05947405472397804,0.0308027770370245,-0.002971053123474121,0.01714310050010681,-0.01211690902709961,XArbitraryZVertical,0.02037894559502943,-0.2116715755201563,-0.9656315553428341,-0.1494511214096929,0.1026262119412422,-0.4027021825313568,-0.9095596671104431,0,0,0,-1,-1,watch,2026-03-03T15:38:39.121-08:00,58,0.9666666666666667,2026-03-03T15:14:50.513-08:00,0.04817426841822398,0
2026-03-03T15:48:19.959-08:00,89099.61294725,0.086334228515625,-0.3764190673828125,-0.8909454345703125,89099.59296025001,2.811865018453946,0.1108548747835254,0.4143565382616237,0.02393320016562939,-0.0532103031873703,0.06266110390424728,-0.008050180971622467,0.01519560813903809,-0.004107236862182617,XArbitraryZVertical,0.01977213966940186,-0.2114961424340501,-0.9657336297348829,-0.1491206843377632,0.1012661382555962,-0.4026010036468506,-0.9097568988800049,0,0,0,-1,-1,watch,2026-03-03T15:38:39.121-08:00,58,0.9666666666666667,2026-03-03T15:14:50.513-08:00,0.04817426841822398,0
2026-03-03T15:48:19.979-08:00,89099.63293425001,0.07489013671875,-0.386810302734375,-0.895263671875,89099.61294725,2.81249285015343,0.1098029359226001,0.4156437148090708,0.09852434694766998,-0.01874961331486702,-0.008064925670623779,-0.01391796767711639,0.02735987305641174,0.01840168237686157,XArbitraryZVertical,0.01922036608929843,-0.21203075783766,-0.9656658108105541,-0.1488729872197785,0.100252203643322,-0.4037789106369019,-0.9093470573425293,0,0,0,-1,-1,watch,2026-03-03T15:38:39.121-08:00,58,0.9666666666666667,2026-03-03T15:14:50.513-08:00,0.04817426841822398,0
2026-03-03T15:48:20.002-08:00,89099.65292025001,0.070526123046875,-0.4327545166015625,-0.8865814208984375,89099.63293425001,2.811285167907208,0.1097110036598069,0.4179136212190162,0.1335402876138687,0.0166927482932806,-0.1002309620380402,-0.02517784386873245,0.0190441906452179,0.0131792426109314,XArbitraryZVertical,0.01885297337365742,-0.2131269938106059,-0.9653553061803802,-0.1493671860957334,0.1000679954886436,-0.4058545231819153,-0.9084429144859314,0,0,0,-1,-1,watch,2026-03-03T15:38:39.121-08:00,58,0.9666666666666667,2026-03-03T15:14:50.513-08:00,0.04817426841822398,0
2026-03-03T15:48:20.019-08:00,89099.67290725,0.151123046875,-0.4542083740234375,-0.8182830810546875,89099.65292025001,2.809567590283275,0.111548395489727,0.4204736704604374,0.503822922706604,0.4893308281898499,-0.09730590134859085,-0.03109487146139145,-0.02456161379814148,0.02064055204391479,XArbitraryZVertical,0.0193354654347581,-0.2145114367519835,-0.9649583382634734,-0.1498874840668633,0.1016209945082664,-0.408192902803421,-0.9072219729423523,0,0,0,-1,-1,watch,2026-03-03T15:38:39.121-08:00,58,0.9666666666666667,2026-03-03T15:14:50.513-08:00,0.04817426841822398,0
2026-03-03T15:48:20.039-08:00,89099.69289425001,0.0956573486328125,-0.4057769775390625,-0.896026611328125,89099.67290725,2.808864630669516,0.1133089760389208,0.421343374630218,-0.08728165179491043,0.01762630231678486,0.1109022945165634,0.04794515669345856,-0.04522168636322021,0.08840548992156982,XArbitraryZVertical,0.02003406972142437,-0.2150682269099747,-0.9648028732161044,-0.1499990099206218,0.103177897632122,-0.4089867174625397,-0.9066885709762573,0,0,0,-1,-1,watch,2026-03-03T15:38:39.121-08:00,58,0.9666666666666667,2026-03-03T15:14:50.513-08:00,0.04817426841822398,0
2026-03-03T15:48:20.058-08:00,89099.71288025001,0.0498504638671875,-0.3149871826171875,-0.92596435546875,89099.69289425001,2.809264644362579,0.1143866598110079,0.4210913993674991,0.1025964990258217,0.06476731598377228,0.004424411803483963,-0.008509367704391479,0.002979755401611328,0.01065266132354736,XArbitraryZVertical,0.0206187983787919,-0.2150238357837705,-0.9648467143903889,-0.1497014551610432,0.1041667237877846,-0.4087567627429962,-0.9066792130470276,0,0,0,-1,-1,watch,2026-03-03T15:38:39.121-08:00,58,0.9666666666666667,2026-03-03T15:14:50.513-08:00,0.04817426841822398,0
2026-03-03T15:48:20.078-08:00,89099.73286725,0.168731689453125,-0.3431243896484375,-0.897369384765625,89099.71288025001,2.808335478815962,0.1155749484071846,0.4251987552234134,0.316262811422348,0.04092342033982277,-0.1039740741252899,-0.05519907921552658,0.09751465916633606,-0.02108490467071533,XArbitraryZVertical,0.02073508849583607,-0.2170952195467413,-0.9643592736869278,-0.149836090214743,0.1050495505332947,-0.4125018417835236,-0.9048794507980347,0,0,0,-1,-1,watch,2026-03-03T15:38:39.121-08:00,58,0.9666666666666667,2026-03-03T15:14:50.513-08:00,0.04817426841822398,0
2026-03-03T15:48:20.098-08:00,89099.75285425001,0.11767578125,-0.4936065673828125,-0.86444091796875,89099.73286725,2.806473865136546,0.1167651779531146,0.4312998675596283,0.2255018204450607,-0.01194924861192703,-0.009824055247008801,0.0629003718495369,0.07492759823799133,0.004868030548095703,XArbitraryZVertical,0.02057323618873798,-0.2201319190474123,-0.9635979418762352,-0.1503249953161048,0.1058313176035881,-0.4180519878864288,-0.9022373557090759,0,0,0,-1,-1,watch,2026-03-03T15:38:39.121-08:00,58,0.9666666666666667,2026-03-03T15:14:50.513-08:00,0.04817426841822398,0
2026-03-03T15:48:20.118-08:00,89099.77284025001,0.081451416015625,-0.435150146484375,-0.8591766357421875,89099.75285425001,2.805231542993266,0.1167031986719167,0.4314480376520608,-0.1887013018131256,-0.03020671382546425,-0.1078602969646454,0.01190761476755142,-0.07541999220848083,0.03774148225784302,XArbitraryZVertical,0.02039362481387251,-0.2202110346321647,-0.9634901797136612,-0.1509235648965715,0.1057681813836098,-0.4181865751743317,-0.902182400226593,0,0,0,-1,-1,watch,2026-03-03T15:38:39.121-08:00,58,0.9666666666666667,2026-03-03T15:14:50.513-08:00,0.04817426841822398,0
2026-03-03T15:48:20.139-08:00,89099.79282725,0.1098480224609375,-0.37139892578125,-0.8741302490234375,89099.77284025001,2.803768287214837,0.1170550788092854,0.4249407539182887,-0.4043440222740173,0.01025928370654583,-0.1127710789442062,-0.02494976669549942,-0.02288335561752319,0.04565203189849854,XArbitraryZVertical,0.02097543176051872,-0.2171306291263257,-0.9640249352794705,-0.151889026875453,0.1064011976122856,-0.4122667908668518,-0.904828667640686,0,0,0,-1,-1,watch,2026-03-03T15:38:39.121-08:00,58,0.9666666666666667,2026-03-03T15:14:50.513-08:00,0.04817426841822398,0
2026-03-03T15:48:20.158-08:00,89099.81281425001,0.1145172119140625,-0.373779296875,-0.875701904296875,89099.79282725,2.802218580557784,0.1182514410994418,0.4155161110436095,-0.5103729367256165,0.03724262863397598,-0.1198268532752991,0.001910790801048279,0.03226324915885925,0.03438854217529297,XArbitraryZVertical,0.02221794052191323,-0.2127133449157583,-0.9648153671066637,-0.1529401344643957,0.1079372391104698,-0.4036621749401093,-0.9085187911987305,0,0,0,-1,-1,watch,2026-03-03T15:38:39.121-08:00,58,0.9666666666666667,2026-03-03T15:14:50.513-08:00,0.04817426841822398,0
2026-03-03T15:48:20.178-08:00,89099.83280025001,0.1059722900390625,-0.3345947265625,-0.8662872314453125,89099.81281425001,2.801511414641646,0.1191708142890006,0.4041631651851781,-0.6034466624259949,0.02931275404989719,-0.08163098245859146,0.005206950008869171,0.01947018504142761,0.0372089147567749,XArbitraryZVertical,0.02359281734831134,-0.2073354268547776,-0.965831433331194,-0.1537048178660497,0.1093102768063545,-0.3932494819164276,-0.9129108190536499,0,0,0,-1,-1,watch,2026-03-03T15:38:39.121-08:00,58,0.9666666666666667,2026-03-03T15:14:50.513-08:00,0.04817426841822398,0
2026-03-03T15:48:20.198-08:00,89099.85278725001,0.0868682861328125,-0.3110198974609375,-0.8590545654296875,89099.83280025001,2.802028900568585,0.1199106481346745,0.3923291974653688,-0.5548375844955444,0.07234287261962891,-0.01767929270863533,-0.004562325775623322,0.0477469265460968,0.05109870433807373,XArbitraryZVertical,0.02505114880712726,-0.2016915509842205,-0.9669550498738274,-0.1539180861431035,0.1105346232652664,-0.3823416829109192,-0.9173859357833862,0,0,0,-1,-1,watch,2026-03-03T15:38:39.121-08:00,58,0.9666666666666667,2026-03-03T15:14:50.513-08:00,0.04817426841822398,0
2026-03-03T15:48:20.219-08:00,89099.87277425001,0.139801025390625,-0.2806854248046875,-0.8404083251953125,89099.85278725001,2.803861405244909,0.1208449885572652,0.3815411589016209,-0.5416557788848877,0.07865677773952484,0.06861415505409241,-0.02501417696475983,0.06133133172988892,0.06226885318756104,XArbitraryZVertical,0.02663746420845479,-0.1965419286550531,-0.9680505823908044,-0.1534269331530521,0.1118824779987335,-0.3723512589931488,-0.9213234186172485,0,0,0,-1,-1,watch,2026-03-03T15:38:39.121-08:00,58,0.9666666666666667,2026-03-03T15:14:50.513-08:00,0.04817426841822398,0
2026-03-03T15:48:20.238-08:00,89099.89276025,0.1193084716796875,-0.3303680419921875,-0.7941131591796875,89099.87277425001,2.809035720224318,0.1198862673385745,0.3699774450097366,-0.7072650194168091,0.01383865531533957,0.2701738476753235,0.02829436212778091,0.08090895414352417,0.0852351188659668,XArbitraryZVertical,0.02768387892355591,-0.1908190166072577,-0.9694638615542054,-0.1515300327039417,0.1115066632628441,-0.3615944087505341,-0.9256433844566345,0,0,0,-1,-1,watch,2026-03-03T15:38:39.121-08:00,58,0.9666666666666667,2026-03-03T15:14:50.513-08:00,0.04817426841822398,0
2026-03-03T15:48:20.258-08:00,89099.91274725001,0.2173004150390625,-0.3250579833984375,-0.7205047607421875,89099.89276025,2.816901241860183,0.1176110288588046,0.3527836449936523,-1.095357060432434,0.01794152148067951,0.3482365012168884,0.009194843471050262,0.01514330506324768,0.1378186941146851,XArbitraryZVertical,0.02878469097402043,-0.1822238639061946,-0.9715257785755577,-0.1486728969006958,0.1101136356592178,-0.3455113470554352,-0.9319317936897278,0,0,0,-1,-1,watch,2026-03-03T15:38:39.121-08:00,58,0.9666666666666667,2026-03-03T15:14:50.513-08:00,0.04817426841822398,0
2026-03-03T15:48:20.278-08:00,89099.93273425,0.2207183837890625,-0.2438812255859375,-0.6775054931640625,89099.91274725001,2.829111913714784,0.1135982043442375,0.32803147161366,-1.507411122322083,0.004121280275285244,0.4430390596389771,0.1099905893206596,-0.002877891063690186,0.2200720310211182,XArbitraryZVertical,0.0299580041366092,-0.1697473155471928,-0.9744330319329717,-0.1441132747559203,0.1073098182678223,-0.3221800923347473,-0.9405767321586609,0,0,0,-1,-1,watch,2026-03-03T15:38:39.121-08:00,58,0.9666666666666667,2026-03-03T15:14:50.513-08:00,0.04817426841822398,0
2026-03-03T15:48:20.298-08:00,89099.95272125001,0.2050933837890625,-0.2207489013671875,-0.6024322509765625,89099.93273425,2.843769133430497,0.1095004678121429,0.2956973171783819,-1.863203763961792,0.05147111788392067,0.5891759395599365,0.116179533302784,0.04752573370933533,0.2733644247055054,XArbitraryZVertical,0.0317043131606335,-0.1534922598045449,-0.9778745089415809,-0.1385515334691716,0.1045388579368591,-0.2914069592952728,-0.9508699178695679,0,0,0,-1,-1,watch,2026-03-03T15:38:39.121-08:00,58,0.9666666666666667,2026-03-03T15:14:50.513-08:00,0.04817426841822398,0
2026-03-03T15:48:20.320-08:00,89099.97270725001,0.208404541015625,-0.2112579345703125,-0.5240325927734375,89099.95272125001,2.86221345007655,0.1065890235076582,0.2556471766947757,-2.337043046951294,0.1650766432285309,0.7350224852561951,0.1021636873483658,0.03212267160415649,0.3595768213272095,XArbitraryZVertical,0.03459606103486893,-0.1334113273162595,-0.9817314175319902,-0.1311793567163667,0.1029297038912773,-0.2528716027736664,-0.962009072303772,0,0,0,-1,-1,watch,2026-03-03T15:38:39.121-08:00,58,0.9666666666666667,2026-03-03T15:14:50.513-08:00,0.04817426841822398,0
2026-03-03T15:48:20.338-08:00,89099.99269425,0.232635498046875,-0.1482391357421875,-0.4598846435546875,89099.97270725001,2.884263203730279,0.1062385463265959,0.2058424686851161,-2.836166381835938,0.3071781694889069,0.8911119699478149,0.1046043038368225,-0.006866037845611572,0.4493375420570374,XArbitraryZVertical,0.03921285347213484,-0.1085231510565706,-0.9857946626676248,-0.1220412382822803,0.1038002446293831,-0.2043919116258621,-0.9733701348304749,0,0,0,-1,-1,watch,2026-03-03T15:38:39.121-08:00,58,0.9666666666666667,2026-03-03T15:14:50.513-08:00,0.04817426841822398,0
2026-03-03T15:48:20.359-08:00,89100.01268125001,0.273773193359375,-0.106903076171875,-0.4005279541015625,89099.99269425,2.911711366828475,0.1092374296643505,0.1464735593916334,-3.350617408752441,0.4821135401725769,1.161524891853333,0.1247825995087624,-0.002288788557052612,0.5235106348991394,XArbitraryZVertical,0.04570663073352037,-0.07882431500442029,-0.9897194040027212,-0.1102415551387775,0.1078529059886932,-0.1459503620862961,-0.9833952784538269,0,0,0,-1,-1,watch,2026-03-03T15:38:39.121-08:00,58,0.9666666666666667,2026-03-03T15:14:50.513-08:00,0.04817426841822398,0
2026-03-03T15:48:20.379-08:00,89100.03266725001,0.298736572265625,0.003082275390625,-0.345977783203125,89100.01268125001,2.945505631012971,0.1168736153990778,0.07898973688089332,-3.737343311309814,0.6573708653450012,1.416086077690125,0.1575290560722351,-0.02799548208713531,0.5895532965660095,XArbitraryZVertical,0.05421934000251519,-0.0449403688795187,-0.992949786044554,-0.09534824629989538,0.1162441372871399,-0.07890762388706207,-0.990081250667572,0,0,0,-1,-1,watch,2026-03-03T15:38:39.121-08:00,58,0.9666666666666667,2026-03-03T15:14:50.513-08:00,0.04817426841822398,0
2026-03-03T15:48:20.398-08:00,89100.05265425,0.376617431640625,0.0676727294921875,-0.3238067626953125,89100.03266725001,2.985907315670387,0.1302845700809127,0.005893035378828437,-3.992340087890625,0.8582255244255066,1.696674823760986,0.1688225269317627,0.008975245989859104,0.6455299854278564,XArbitraryZVertical,0.06467016764363072,-0.007993485945999523,-0.9948678212778577,-0.07740758211780341,0.1299140453338623,-0.005893001332879066,-0.9915077686309814,0,0,0,-1,-1,watch,2026-03-03T15:38:39.121-08:00,58,0.9666666666666667,2026-03-03T15:14:50.513-08:00,0.04817426841822398,0
2026-03-03T15:48:20.418-08:00,89100.07264125001,0.420684814453125,0.089599609375,-0.297119140625,89100.05265425,3.032994866723773,0.1513161996229954,-0.0700886675975807,-4.197127342224121,1.090397119522095,1.88276219367981,0.2262481153011322,-0.002358600497245789,0.6623396277427673,XArbitraryZVertical,0.07732430787985507,0.03078574333340005,-0.9949145767849322,-0.05672813733840903,0.150369331240654,0.0700313001871109,-0.9861463904380798,0,0,0,-1,-1,watch,2026-03-03T15:38:39.121-08:00,58,0.9666666666666667,2026-03-03T15:14:50.513-08:00,0.04817426841822398,0
2026-03-03T15:48:20.438-08:00,89100.09262725001,0.4269866943359375,0.1311798095703125,-0.346893310546875,89100.07264125001,3.086221957955968,0.1812548865655759,-0.1470694514949555,-4.180929660797119,1.325824856758118,2.068225383758545,0.242366760969162,-0.05694027245044708,0.6758807301521301,XArbitraryZVertical,0.09224966622200095,0.07064040709030406,-0.9926400199850743,-0.03414030298235649,0.178318053483963,0.1465398520231247,-0.9729998707771301,0,0,0,-1,-1,watch,2026-03-03T15:38:39.121-08:00,58,0.9666666666666667,2026-03-03T15:14:50.513-08:00,0.04817426841822398,0
2026-03-03T15:48:20.458-08:00,89100.11261350001,0.4488983154296875,0.1301727294921875,-0.48797607421875,89100.09262725001,-3.137625931349587,0.2214938382324735,-0.2172254541009664,-3.851552724838257,1.621742248535156,2.264588594436646,0.212462306022644,-0.08434133231639862,0.6057503223419189,XArbitraryZVertical,0.1096555282578614,0.1079529304050074,-0.9880391995275754,-0.01002074614515831,0.2145243883132935,0.2155211120843887,-0.9526436328887939,0,0,0,-1,-1,watch,2026-03-03T15:38:39.121-08:00,58,0.9666666666666667,2026-03-03T15:14:50.513-08:00,0.04817426841822398,0
2026-03-03T15:48:20.478-08:00,89100.1326005,0.5839080810546875,0.2043914794921875,-0.6520233154296875,89100.11261350001,-3.071981313227833,0.2727085604437791,-0.2750354937264151,-3.317887306213379,1.902092695236206,2.504040002822876,0.1896804571151733,-0.1414084136486053,0.4388733506202698,XArbitraryZVertical,0.1298412070927469,0.1404156514710331,-0.9814192672715801,0.0155272536696624,0.2592178583145142,0.2715810835361481,-0.9268494248390198,0,0,0,-1,-1,watch,2026-03-03T15:38:39.121-08:00,58,0.9666666666666667,2026-03-03T15:14:50.513-08:00,0.04817426841822398,0
2026-03-03T15:48:20.498-08:00,89100.1525865,0.745025634765625,0.29571533203125,-0.7227325439453125,89100.1326005,-3.00023718272046,0.3341001944466165,-0.3188547738266326,-2.87591290473938,2.119852066040039,2.742165803909302,0.272517591714859,-0.1090878248214722,0.2450645565986633,XArbitraryZVertical,0.1527008613205482,0.1677453430173936,-0.9730078110677196,0.04242213375800907,0.3113904893398285,0.3134792745113373,-0.8970878720283508,0,0,0,-1,-1,watch,2026-03-03T15:38:39.121-08:00,58,0.9666666666666667,2026-03-03T15:14:50.513-08:00,0.04817426841822398,0
2026-03-03T15:48:20.519-08:00,89100.17257350001,0.872528076171875,0.374755859375,-0.71209716796875,89100.1525865,-2.923397568718485,0.4041704522656538,-0.3452663530143528,-2.216756582260132,2.387472152709961,3.084224462509155,0.374977320432663,-0.04273203015327454,0.1424366235733032,XArbitraryZVertical,0.1782309053839106,0.188809868996447,-0.9631048448478883,0.07080723622235104,0.370048314332962,0.3384473323822021,-0.8651691675186157,0,0,0,-1,-1,watch,2026-03-03T15:38:39.121-08:00,58,0.9666666666666667,2026-03-03T15:14:50.513-08:00,0.04817426841822398,0
2026-03-03T15:48:20.539-08:00,89100.1925605,0.954620361328125,0.32659912109375,-0.6469268798828125,89100.17257350001,-2.843397475669578,0.4826723064601354,-0.3530307872021196,-1.767192959785461,2.743477582931519,3.370115756988525,0.4370046257972717,0.02901256084442139,0.1190351247787476,XArbitraryZVertical,0.2073474807986135,0.203570306044053,-0.9515600583065604,0.1004967058102855,0.4355234503746033,0.3457432687282562,-0.8311322927474976,0,0,0,-1,-1,watch,2026-03-03T15:38:39.121-08:00,58,0.9666666666666667,2026-03-03T15:14:50.513-08:00,0.04817426841822398,0
2026-03-03T15:48:20.558-08:00,89100.2125465,1.0206298828125,0.212158203125,-0.6594085693359375,89100.1925605,-2.761011250789223,0.5706288674327143,-0.349231470286248,-1.901042819023132,3.213814735412598,3.485249280929565,0.4470652341842651,-0.01557672023773193,0.1438345313072205,XArbitraryZVertical,0.240644294726561,0.2161240960477807,-0.9371724697166616,0.1307226821397537,0.5075550675392151,0.3421757817268372,-0.790761411190033,0,0,0,-1,-1,watch,2026-03-03T15:38:39.121-08:00,58,0.9666666666666667,2026-03-03T15:14:50.513-08:00,0.04817426841822398,0
2026-03-03T15:48:20.578-08:00,89100.23253350001,1.107192993164062,0.1471099853515625,-0.6938629150390625,89100.2125465,-2.672796519953589,0.6687073519094787,-0.3445942096661683,-2.623158931732178,3.580775022506714,3.538806438446045,0.4371041655540466,-0.1256566047668457,0.07908916473388672,XArbitraryZVertical,0.2768445056650854,0.2326118200079795,-0.9182542958378908,0.1614242544994478,0.5835257172584534,0.3378147780895233,-0.7384977340698242,0,0,0,-1,-1,watch,2026-03-03T15:38:39.121-08:00,58,0.9666666666666667,2026-03-03T15:14:50.513-08:00,0.04817426841822398,0
2026-03-03T15:48:20.598-08:00,89100.2525205,1.219329833984375,0.23077392578125,-0.7359466552734375,89100.23253350001,-2.57159014065977,0.7759729447816661,-0.3445223476728336,-3.656173229217529,3.697138786315918,3.606326818466187,0.447940468788147,-0.1906371712684631,-0.02206462621688843,XArbitraryZVertical,0.3130792719473717,0.2570646109498205,-0.8934174788886871,0.1941759042230543,0.6592524647712708,0.3377471268177032,-0.6717982888221741,0,0,0,-1,-1,watch,2026-03-03T15:38:39.121-08:00,58,0.9666666666666667,2026-03-03T15:14:50.513-08:00,0.04817426841822398,0
2026-03-03T15:48:20.619-08:00,89100.27250650001,1.355575561523438,0.4212493896484375,-0.671844482421875,89100.2525205,-2.454867415658642,0.8886987826093397,-0.3466746856910942,-4.542928218841553,3.579850435256958,3.6269211769104,0.4892586469650269,-0.1089983284473419,-0.1430292725563049,XArbitraryZVertical,0.346287683062701,0.2891818428785425,-0.8624063089832044,0.2295956388339681,0.7300711274147034,0.3397721946239471,-0.5929173827171326,0,0,0,-1,-1,watch,2026-03-03T15:38:39.121-08:00,58,0.9666666666666667,2026-03-03T15:14:50.513-08:00,0.04817426841822398,0
2026-03-03T15:48:20.638-08:00,89100.2924935,1.446853637695312,0.59014892578125,-0.6435089111328125,89100.27250650001,-2.329164835635431,1.000251655275396,-0.3428925906749788,-4.752486228942871,3.293556690216064,3.616233348846436,0.5629618763923645,0.08503663539886475,-0.1631947159767151,XArbitraryZVertical,0.3748983381855167,0.3242319945196281,-0.8266209330233663,0.2665005292932007,0.7926136255264282,0.336212694644928,-0.5086497068405151,0,0,0,-1,-1,watch,2026-03-03T15:38:39.121-08:00,58,0.9666666666666667,2026-03-03T15:14:50.513-08:00,0.04817426841822398,0
2026-03-03T15:48:20.658-08:00,89100.31248050001,1.513275146484375,0.7077484130859375,-0.657562255859375,89100.2924935,-2.205388496749778,1.102480716377088,-0.3260013393374765,-4.509078025817871,2.840895414352417,3.623403549194336,0.6015223264694214,0.2698913514614105,-0.2158992290496826,XArbitraryZVertical,0.398833629046476,0.3565485596479202,-0.7885072888814504,0.3034156513545769,0.8453312516212463,0.3202575445175171,-0.4276097118854523,0,0,0,-1,-1,watch,2026-03-03T15:38:39.121-08:00,58,0.9666666666666667,2026-03-03T15:14:50.513-08:00,0.04817426841822398,0
2026-03-03T15:48:20.678-08:00,89100.33246650001,1.543060302734375,0.8022003173828125,-0.640625,89100.31248050001,-2.092368935332468,1.188786899414078,-0.2958596232287952,-4.027798652648926,2.311960697174072,3.547812938690186,0.6256740093231201,0.41618612408638,-0.3009733259677887,XArbitraryZVertical,0.4182392307679396,0.3831207189069684,-0.7505825294076889,0.3389988118317665,0.8876010775566101,0.2915622293949127,-0.3565889298915863,0,0,0,-1,-1,watch,2026-03-03T15:38:39.121-08:00,58,0.9666666666666667,2026-03-03T15:14:50.513-08:00,0.04817426841822398,0
2026-03-03T15:48:20.698-08:00,89100.3524535,1.50518798828125,0.887054443359375,-0.6006622314453125,89100.33246650001,-1.996081475137006,1.256125023494982,-0.2564619275130596,-3.314325571060181,1.787533164024353,3.291020631790161,0.6232627034187317,0.548540472984314,-0.3412439227104187,XArbitraryZVertical,0.4336737590268838,0.4027859353973021,-0.7151715086682242,0.371779766809102,0.9197975397109985,0.2536597847938538,-0.2993811070919037,0,0,0,-1,-1,watch,2026-03-03T15:38:39.121-08:00,58,0.9666666666666667,2026-03-03T15:14:50.513-08:00,0.04817426841822398,0
2026-03-03T15:48:20.719-08:00,89100.37244050001,1.39453125,0.9026641845703125,-0.55670166015625,89100.3524535,-1.921181625419704,1.304444927577799,-0.2138931376522683,-2.446394920349121,1.300985455513,2.84333872795105,0.5624347925186157,0.6747884750366211,-0.3434471487998962,XArbitraryZVertical,0.445963366097258,0.4153421569566663,-0.6847155821205121,0.3997150900913352,0.9427531957626343,0.2122659236192703,-0.257215142250061,0,0,0,-1,-1,watch,2026-03-03T15:38:39.121-08:00,58,0.9666666666666667,2026-03-03T15:14:50.513-08:00,0.04817426841822398,0
2026-03-03T15:48:20.738-08:00,89100.39242650001,1.300064086914062,0.8597259521484375,-0.4759063720703125,89100.37244050001,-1.868407356741571,1.336378438453014,-0.1744670631360548,-1.610517024993896,0.8972935676574707,2.244701147079468,0.4366471171379089,0.729080855846405,-0.327951043844223,XArbitraryZVertical,0.4556612858134635,0.4218974276257411,-0.6608824222797912,0.4214379013354954,0.9578841924667358,0.1735833138227463,-0.2287507057189941,0,0,0,-1,-1,watch,2026-03-03T15:38:39.121-08:00,58,0.9666666666666667,2026-03-03T15:14:50.513-08:00,0.04817426841822398,0
2026-03-03T15:48:20.758-08:00,89100.4124135,1.22857666015625,0.7897796630859375,-0.42620849609375,89100.39242650001,-1.835680996023276,1.356573504419427,-0.142626460501597,-0.8537196516990662,0.6057639122009277,1.587648749351501,0.3328439593315125,0.7175825238227844,-0.2654769420623779,XArbitraryZVertical,0.4634126431385934,0.4243041212024336,-0.6440640946246035,0.4363440572582836,0.9672200679779053,0.1421433985233307,-0.2104294747114182,0,0,0,-1,-1,watch,2026-03-03T15:38:39.121-08:00,58,0.9666666666666667,2026-03-03T15:14:50.513-08:00,0.04817426841822398,0
2026-03-03T15:48:20.778-08:00,89100.43240050001,1.095077514648438,0.6814117431640625,-0.380279541015625,89100.4124135,-1.8195376537327,1.36815649671345,-0.1197304245365091,-0.2718309164047241,0.3640190958976746,0.9936666488647461,0.2560505867004395,0.670335054397583,-0.2263935059309006,XArbitraryZVertical,0.4694840675238729,0.4238834801588245,-0.6338734665728675,0.4450975494147574,0.972525954246521,0.1194445639848709,-0.1998150050640106,0,0,0,-1,-1,watch,2026-03-03T15:38:39.121-08:00,58,0.9666666666666667,2026-03-03T15:14:50.513-08:00,0.04817426841822398,0
2026-03-03T15:48:20.797-08:00,89100.45238650001,1.02008056640625,0.595062255859375,-0.3394775390625,89100.43240050001,-1.814789951863502,1.37440677597976,-0.1059395344951112,0.03464860841631889,0.2095494568347931,0.4658275246620178,0.1197985410690308,0.5756702423095703,-0.1862439513206482,XArbitraryZVertical,0.4739233457753507,0.4223492122129373,-0.6288953991446771,0.4488969303556747,0.9752789735794067,0.105741485953331,-0.194035604596138,0,0,0,-1,-1,watch,2026-03-03T15:38:39.121-08:00,58,0.9666666666666667,2026-03-03T15:14:50.513-08:00,0.04817426841822398,0
2026-03-03T15:48:20.820-08:00,89100.4723735,0.9547271728515625,0.5535125732421875,-0.3130645751953125,89100.45238650001,-1.815587344349576,1.377077559711833,-0.1005107097388345,0.1403803676366806,0.06812404841184616,0.08131592720746994,0.04373794794082642,0.4947206974029541,-0.1479397416114807,XArbitraryZVertical,0.4762898207333232,0.4211639650141936,-0.6274657158421358,0.449506074901192,0.9763425588607788,0.1003415584564209,-0.1915378421545029,0,0,0,-1,-1,watch,2026-03-03T15:38:39.121-08:00,58,0.9666666666666667,2026-03-03T15:14:50.513-08:00,0.04817426841822398,0
2026-03-03T15:48:20.838-08:00,89100.49236050001,0.8807373046875,0.511932373046875,-0.278533935546875,89100.4723735,-1.81908406733028,1.376853646050058,-0.1009417476060866,0.1774583905935287,-0.04590508714318275,-0.1814338862895966,-0.02152997255325317,0.4527421593666077,-0.1213165521621704,XArbitraryZVertical,0.476847594663027,0.420407332894929,-0.6283814073225327,0.4483422929501743,0.9762570858001709,0.1007704138755798,-0.1917480975389481,0,0,0,-1,-1,watch,2026-03-03T15:38:39.121-08:00,58,0.9666666666666667,2026-03-03T15:14:50.513-08:00,0.04817426841822398,0
2026-03-03T15:48:20.858-08:00,89100.51234650001,0.8249053955078125,0.471954345703125,-0.2450408935546875,89100.49236050001,-1.822941857357083,1.374675958155293,-0.1056822053383604,0.09294058382511139,-0.127090722322464,-0.3460327684879303,-0.0946204662322998,0.4064467549324036,-0.08475564420223236,XArbitraryZVertical,0.475790054883427,0.4203982052751555,-0.6306099957847738,0.446340800980347,0.9753576517105103,0.1054855957627296,-0.1937783509492874,0,0,0,-1,-1,watch,2026-03-03T15:38:39.121-08:00,58,0.9666666666666667,2026-03-03T15:14:50.513-08:00,0.04817426841822398,0
2026-03-03T15:48:20.878-08:00,89100.5323335,0.7958221435546875,0.44647216796875,-0.2259063720703125,89100.51234650001,-1.824683522816787,1.371371574696203,-0.1132714300281295,-0.07760975509881973,-0.1792442798614502,-0.4202017188072205,-0.148993968963623,0.3589249849319458,-0.0482049435377121,XArbitraryZVertical,0.4732143981036733,0.4214856468459722,-0.6331252178292973,0.4444888196585035,0.973899245262146,0.1130293682217598,-0.1968359649181366,0,0,0,-1,-1,watch,2026-03-03T15:38:39.121-08:00,58,0.9666666666666667,2026-03-03T15:14:50.513-08:00,0.04817426841822398,0
2026-03-03T15:48:20.898-08:00,89100.55232050001,0.8154754638671875,0.42242431640625,-0.2299346923828125,89100.5323335,-1.82308047151783,1.36751749441156,-0.1223456023610626,-0.2629022300243378,-0.2283793836832047,-0.4291585981845856,-0.1762667894363403,0.3244315385818481,-0.02553372085094452,XArbitraryZVertical,0.4693721643842277,0.4236784602414459,-0.6352676981657532,0.4434198508888862,0.9720888137817383,0.1220406070351601,-0.2003726661205292,0,0,0,-1,-1,watch,2026-03-03T15:38:39.121-08:00,58,0.9666666666666667,2026-03-03T15:14:50.513-08:00,0.04817426841822398,0
2026-03-03T15:48:20.920-08:00,89100.57230650001,0.808319091796875,0.4150238037109375,-0.214019775390625,89100.55232050001,-1.817374293345379,1.36320949542672,-0.1320514293890878,-0.4986046552658081,-0.281791478395462,-0.4070704579353333,-0.1545364856719971,0.2907563447952271,-0.02562993764877319,XArbitraryZVertical,0.4643292725075846,0.4269027037380175,-0.6366939880725765,0.4435912257587802,0.9700118899345398,0.1316679865121841,-0.2043048143386841,0,0,0,-1,-1,watch,2026-03-03T15:38:39.121-08:00,58,0.9666666666666667,2026-03-03T15:14:50.513-08:00,0.04817426841822398,0
2026-03-03T15:48:20.938-08:00,89100.59229350001,0.82598876953125,0.401031494140625,-0.252532958984375,89100.57230650001,-1.807061359078391,1.358532218121777,-0.1424653561084599,-0.701888382434845,-0.3238847553730011,-0.3956415951251984,-0.1593337059020996,0.2730398774147034,-0.005480408668518066,XArbitraryZVertical,0.4579595656109497,0.4312810476313123,-0.6372784831969595,0.4451357403485841,0.9676527976989746,0.1419839262962341,-0.2085393816232681,0,0,0,-1,-1,watch,2026-03-03T15:38:39.121-08:00,58,0.9666666666666667,2026-03-03T15:14:50.513-08:00,0.04817426841822398,0
2026-03-03T15:48:20.958-08:00,89100.6122805,0.8624267578125,0.3395538330078125,-0.2776641845703125,89100.59229350001,-1.793538432650695,1.353179928090377,-0.1531530869523618,-0.8290421366691589,-0.415025919675827,-0.3603830337524414,-0.1389971375465393,0.2484764158725739,-0.03915733098983765,XArbitraryZVertical,0.4505475395126815,0.436255731120204,-0.6373119101297868,0.4477961209241317,0.9649858474731445,0.15255506336689,-0.2133757025003433,0,0,0,-1,-1,watch,2026-03-03T15:38:39.121-08:00,58,0.9666666666666667,2026-03-03T15:14:50.513-08:00,0.04817426841822398,0
2026-03-03T15:48:20.978-08:00,89100.63226750001,0.88446044921875,0.30810546875,-0.226043701171875,89100.6122805,-1.776433824597037,1.347095896221793,-0.1643735407163223,-1.112031936645508,-0.4719709455966949,-0.3757992684841156,-0.09951335191726685,0.1759194880723953,-0.05881503224372864,XArbitraryZVertical,0.4418983612114419,0.4419289879959108,-0.6367458999717689,0.4516407273063608,0.9619401693344116,0.1636343449354172,-0.2188492119312286,0,0,0,-1,-1,watch,2026-03-03T15:38:39.121-08:00,58,0.9666666666666667,2026-03-03T15:14:50.513-08:00,0.04817426841822398,0
2026-03-03T15:48:20.997-08:00,89100.65225350001,0.8541717529296875,0.3308563232421875,-0.2311859130859375,89100.63226750001,-1.752764513749533,1.341588616362104,-0.1774088093194355,-1.414544463157654,-0.4620279967784882,-0.3633773922920227,-0.0741010308265686,0.1316258162260056,-0.002403885126113892,XArbitraryZVertical,0.4313763677531977,0.4495492089025506,-0.634804733977924,0.4569933737255611,0.9585615396499634,0.1764796525239944,-0.2236398756504059,0,0,0,-1,-1,watch,2026-03-03T15:38:39.121-08:00,58,0.9666666666666667,2026-03-03T15:14:50.513-08:00,0.04817426841822398,0
2026-03-03T15:48:21.019-08:00,89100.6722405,0.892059326171875,0.275482177734375,-0.400054931640625,89100.65225350001,-1.725445516843879,1.337490462063845,-0.1907396820188764,-1.466055393218994,-0.4624703824520111,-0.3069756925106049,-0.1010912656784058,0.141271099448204,-0.004183769226074219,XArbitraryZVertical,0.4202316214021894,0.4581531329406627,-0.6316845482945702,0.4631151913838268,0.9552630186080933,0.1895852088928223,-0.2270021885633469,0,0,0,-1,-1,watch,2026-03-03T15:38:39.121-08:00,58,0.9666666666666667,2026-03-03T15:14:50.513-08:00,0.04817426841822398,0
2026-03-03T15:48:21.037-08:00,89100.69222750001,0.9422607421875,0.1787872314453125,-0.343048095703125,89100.6722405,-1.696598442045772,1.333429955402349,-0.2032894359283031,-1.62842845916748,-0.5047752857208252,-0.2891695201396942,-0.05988651514053345,0.07359005510807037,-0.1697534322738647,XArbitraryZVertical,0.4087790401526017,0.4666357550037128,-0.6279674476270276,0.4699017977820777,0.9519458413124084,0.2018921226263046,-0.2303015440702438,0,0,0,-1,-1,watch,2026-03-03T15:38:39.121-08:00,58,0.9666666666666667,2026-03-03T15:14:50.513-08:00,0.04817426841822398,0
2026-03-03T15:48:21.057-08:00,89100.71221350001,0.9306488037109375,0.2733917236328125,-0.278076171875,89100.69222750001,-1.663009425223864,1.330282748041963,-0.2181826004276335,-1.887399196624756,-0.5029535293579102,-0.3666086494922638,-0.005929887294769287,-0.03766843676567078,-0.1104938387870789,XArbitraryZVertical,0.3956257572440561,0.4766582833826857,-0.6232415022597344,0.4773334069304908,0.9481906294822693,0.2164556682109833,-0.2325542867183685,0,0,0,-1,-1,watch,2026-03-03T15:38:39.121-08:00,58,0.9666666666666667,2026-03-03T15:14:50.513-08:00,0.04817426841822398,0
2026-03-03T15:48:21.077-08:00,89100.7322005,0.912200927734375,0.376129150390625,-0.324005126953125,89100.71221350001,-1.628296563029304,1.328715113769867,-0.2344805883918689,-1.691212773323059,-0.4175034463405609,-0.4008431136608124,-0.01362550258636475,0.0410538911819458,-0.04491251707077026,XArbitraryZVertical,0.3820226937218427,0.4873159406189126,-0.618066849670135,0.4843296532092689,0.9442742466926575,0.2323378175497055,-0.2331636697053909,0,0,0,-1,-1,watch,2026-03-03T15:38:39.121-08:00,58,0.9666666666666667,2026-03-03T15:14:50.513-08:00,0.04817426841822398,0
2026-03-03T15:48:21.097-08:00,89100.75218750001,0.9364776611328125,0.321533203125,-0.3773040771484375,89100.7322005,-1.602457673541294,1.32805000036191,-0.2493042554417431,-1.067753791809082,-0.2557235062122345,-0.4595288038253784,-0.02847135066986084,0.1293993443250656,-0.09106701612472534,XArbitraryZVertical,0.3710640219662292,0.4958249780454232,-0.6145324944906276,0.4886910557529059,0.9406722784042358,0.2467297911643982,-0.2329381704330444,0,0,0,-1,-1,watch,2026-03-03T15:38:39.121-08:00,58,0.9666666666666667,2026-03-03T15:14:50.513-08:00,0.04817426841822398,0
2026-03-03T15:48:21.117-08:00,89100.77217350001,0.9326629638671875,0.2885589599609375,-0.3935394287109375,89100.75218750001,-1.590683105536798,1.327225298694365,-0.262899795572339,-0.3610033988952637,-0.144667461514473,-0.580132782459259,-0.000659942626953125,0.06165134906768799,-0.1444208323955536,XArbitraryZVertical,0.3637864363857025,0.5012163172493693,-0.6142153801752612,0.4890613085523447,0.9371374845504761,0.2598817944526672,-0.2328832596540451,0,0,0,-1,-1,watch,2026-03-03T15:38:39.121-08:00,58,0.9666666666666667,2026-03-03T15:14:50.513-08:00,0.04817426841822398,0
2026-03-03T15:48:21.138-08:00,89100.7921605,0.9077911376953125,0.267547607421875,-0.3892669677734375,89100.77217350001,-1.593621164784171,1.324239502901937,-0.2747992490387393,0.3199244737625122,-0.07436572015285492,-0.6306054592132568,-0.0007100105285644531,0.01720520853996277,-0.1586305499076843,XArbitraryZVertical,0.3600028574803226,0.5029348645663854,-0.6175606942636639,0.485873760848014,0.9333729147911072,0.2713537216186523,-0.2349089235067368,0,0,0,-1,-1,watch,2026-03-03T15:38:39.121-08:00,58,0.9666666666666667,2026-03-03T15:14:50.513-08:00,0.04817426841822398,0
2026-03-03T15:48:21.158-08:00,89100.81214750001,0.9176025390625,0.2362518310546875,-0.35223388671875,89100.7921605,-1.608303749082658,1.319213266220046,-0.2841200435756069,0.7574514746665955,-0.02891438454389572,-0.6104917526245117,-0.02189922332763672,-0.0127653181552887,-0.1503097265958786,XArbitraryZVertical,0.3593068603473467,0.5014179442385416,-0.6236154330616589,0.4801899056901204,0.9296903014183044,0.2803128957748413,-0.2389572560787201,0,0,0,-1,-1,watch,2026-03-03T15:38:39.121-08:00,58,0.9666666666666667,2026-03-03T15:14:50.513-08:00,0.04817426841822398,0
2026-03-03T15:48:21.178-08:00,89100.83213350001,0.94915771484375,0.2240447998046875,-0.3403778076171875,89100.81214750001,-1.628464938156902,1.312910266225395,-0.2911957723620678,0.9074052572250366,-0.03781841695308685,-0.5639793276786804,-0.008622229099273682,-0.05084607005119324,-0.1079335808753967,XArbitraryZVertical,0.3602318416901417,0.4980791506730412,-0.6307441104487022,0.4736159886795295,0.9262247085571289,0.2870978713035583,-0.244300365447998,0,0,0,-1,-1,watch,2026-03-03T15:38:39.121-08:00,58,0.9666666666666667,2026-03-03T15:14:50.513-08:00,0.04817426841822398,0
2026-03-03T15:48:21.198-08:00,89100.8521205,1.033767700195312,0.199462890625,-0.2990570068359375,89100.83213350001,-1.649771321022028,1.30556977176659,-0.2970307404462754,0.8769208788871765,-0.09201157838106155,-0.533255398273468,0.02638351917266846,-0.06863749027252197,-0.08972853422164917,XArbitraryZVertical,0.3614350063746998,0.4940041424623528,-0.6380312167115412,0.4671626379427742,0.9227741956710815,0.2926822602748871,-0.2506492733955383,0,0,0,-1,-1,watch,2026-03-03T15:38:39.121-08:00,58,0.9666666666666667,2026-03-03T15:14:50.513-08:00,0.04817426841822398,0
2026-03-03T15:48:21.218-08:00,89100.87210750001,1.015487670898438,0.19384765625,-0.2451019287109375,89100.8521205,-1.668433955945987,1.297180235765828,-0.3032315763137683,0.6528538465499878,-0.1859027892351151,-0.5445837378501892,0.114893913269043,-0.09914299845695496,-0.04117044806480408,XArbitraryZVertical,0.3614825793810078,0.490292789654829,-0.6448626900972867,0.461622734528273,0.9188738465309143,0.298605889081955,-0.2578866481781006,0,0,0,-1,-1,watch,2026-03-03T15:38:39.121-08:00,58,0.9666666666666667,2026-03-03T15:14:50.513-08:00,0.04817426841822398,0
2026-03-03T15:48:21.238-08:00,89100.89209350001,0.9625701904296875,0.204864501953125,-0.23370361328125,89100.87210750001,-1.681915034530779,1.288950192340445,-0.3108706810474773,0.3773915767669678,-0.2207355797290802,-0.5373220443725586,0.1009852290153503,-0.1120400428771973,0.01969599723815918,XArbitraryZVertical,0.3598363310582589,0.4879741950774798,-0.6506191562811868,0.4572676384707843,0.9145024418830872,0.3058876991271973,-0.2647979855537415,0,0,0,-1,-1,watch,2026-03-03T15:38:39.121-08:00,58,0.9666666666666667,2026-03-03T15:14:50.513-08:00,0.04817426841822398,0
2026-03-03T15:48:21.258-08:00,89100.9120805,0.92218017578125,0.2389068603515625,-0.2541656494140625,89100.89209350001,-1.690816301767279,1.281907343056081,-0.3195949521355223,0.206448957324028,-0.2030508816242218,-0.5368829369544983,0.05254805088043213,-0.1093176007270813,0.03675785660743713,XArbitraryZVertical,0.3571069224335352,0.487076897205858,-0.6552169157809444,0.4537856525140703,0.9100220203399658,0.3141820430755615,-0.2704614698886871,0,0,0,-1,-1,watch,2026-03-03T15:38:39.121-08:00,58,0.9666666666666667,2026-03-03T15:14:50.513-08:00,0.04817426841822398,0
2026-03-03T15:48:21.277-08:00,89100.93206750001,0.896697998046875,0.250244140625,-0.2635650634765625,89100.9120805,-1.697299523051843,1.275932849687697,-0.3288210682321701,0.139588788151741,-0.1866225898265839,-0.5185037851333618,0.01660233736038208,-0.08402064442634583,0.0208737850189209,XArbitraryZVertical,0.3539705641580172,0.4870165392758649,-0.6590964388074079,0.4506790699146315,0.9055777788162231,0.3229274749755859,-0.2750394642353058,0,0,0,-1,-1,watch,2026-03-03T15:38:39.121-08:00,58,0.9666666666666667,2026-03-03T15:14:50.513-08:00,0.04817426841822398,0
2026-03-03T15:48:21.297-08:00,89100.95205450001,0.904541015625,0.282073974609375,-0.2551116943359375,89100.93206750001,-1.703474232666575,1.270390883770214,-0.337565890058113,0.1751452535390854,-0.1674933284521103,-0.4881286323070526,-0.004609644412994385,-0.08094725012779236,0.0156424343585968,XArbitraryZVertical,0.3510310665976484,0.4870045348074525,-0.6627131501701634,0.4476773008999803,0.9013075828552246,0.3311913311481476,-0.2792075574398041,0,0,0,-1,-1,watch,2026-03-03T15:38:39.121-08:00,58,0.9666666666666667,2026-03-03T15:14:50.513-08:00,0.04817426841822398,0
2026-03-03T15:48:21.317-08:00,89100.97204050001,0.9154815673828125,0.3106536865234375,-0.2433013916015625,89100.95205450001,-1.711027621915028,1.26454248879868,-0.3450973727467544,0.2858387529850006,-0.1667391210794449,-0.4422067701816559,0.007285416126251221,-0.05621436238288879,0.02860218286514282,XArbitraryZVertical,0.348674771819276,0.4863835432647716,-0.6664770639226587,0.4445957465563855,0.8972555994987488,0.3382883071899414,-0.2837139070034027,0,0,0,-1,-1,watch,2026-03-03T15:38:39.121-08:00,58,0.9666666666666667,2026-03-03T15:14:50.513-08:00,0.04817426841822398,0
2026-03-03T15:48:21.337-08:00,89100.9920275,0.8972015380859375,0.3061676025390625,-0.2225189208984375,89100.97204050001,-1.720603920213717,1.257900535729565,-0.3510070555284894,0.3830015361309052,-0.1689281463623047,-0.3936296999454498,0.02204793691635132,-0.03318995237350464,0.04574525356292725,XArbitraryZVertical,0.3470143026937849,0.4848275238229692,-0.670563173528147,0.4414390555319702,0.8934336304664612,0.3438436388969421,-0.2890467047691345,0,0,0,-1,-1,watch,2026-03-03T15:38:39.121-08:00,58,0.9666666666666667,2026-03-03T15:14:50.513-08:00,0.04817426841822398,0
2026-03-03T15:48:21.358-08:00,89101.01201450001,0.8956298828125,0.2918701171875,-0.21875,89100.9920275,-1.731276535540152,1.250978273661362,-0.3555973370395804,0.4162006676197052,-0.1543322950601578,-0.3558041155338287,0.007297873497009277,-0.04198279976844788,0.07220596075057983,XArbitraryZVertical,0.3458984055367508,0.4826922547079157,-0.6747236623838778,0.4383040985156273,0.8899036645889282,0.3481504023075104,-0.2947249710559845,0,0,0,-1,-1,watch,2026-03-03T15:38:39.121-08:00,58,0.9666666666666667,2026-03-03T15:14:50.513-08:00,0.04817426841822398,0
2026-03-03T15:48:21.377-08:00,89101.03200050001,0.8897705078125,0.2777557373046875,-0.222808837890625,89101.01201450001,-1.741748591953248,1.244296994861111,-0.3594322100251601,0.3778025805950165,-0.147069051861763,-0.3206216990947723,0.008986294269561768,-0.05987271666526794,0.08148357272148132,XArbitraryZVertical,0.345017821540092,0.4804642702891841,-0.6786659358333849,0.4353495164888007,0.8866434693336487,0.3517427742481232,-0.3002335727214813,0,0,0,-1,-1,watch,2026-03-03T15:38:39.121-08:00,58,0.9666666666666667,2026-03-03T15:14:50.513-08:00,0.04817426841822398,0
2026-03-03T15:48:21.397-08:00,89101.0519875,0.9092254638671875,0.2564697265625,-0.246429443359375,89101.03200050001,-1.750453918256476,1.238219896410839,-0.3629931723926667,0.2700003087520599,-0.1576810032129288,-0.2716144621372223,0.006157279014587402,-0.0773182213306427,0.08239650726318359,XArbitraryZVertical,0.3439797083259362,0.4786180695002637,-0.6820574366739834,0.4328977385120286,0.8836131691932678,0.3550739586353302,-0.3052054047584534,0,0,0,-1,-1,watch,2026-03-03T15:38:39.121-08:00,58,0.9666666666666667,2026-03-03T15:14:50.513-08:00,0.04817426841822398,0
2026-03-03T15:48:21.417-08:00,89101.07197450001,0.90032958984375,0.255859375,-0.227935791015625,89101.0519875,-1.75561682918008,1.232882047127578,-0.3662547423405516,0.06261011213064194,-0.1936577707529068,-0.1989011019468307,0.0283513069152832,-0.1016514301300049,0.06310251355171204,XArbitraryZVertical,0.3424221276455461,0.4774736539083105,-0.6844982511636222,0.431541422817427,0.8808740377426147,0.3581210970878601,-0.3095319867134094,0,0,0,-1,-1,watch,2026-03-03T15:38:39.121-08:00,58,0.9666666666666667,2026-03-03T15:14:50.513-08:00,0.04817426841822398,0
2026-03-03T15:48:21.437-08:00,89101.09196050001,0.8730621337890625,0.2832489013671875,-0.21173095703125,89101.07197450001,-1.755801732450195,1.228874958379143,-0.3696114595211345,-0.151971697807312,-0.1933224350214005,-0.1255559772253036,0.02184033393859863,-0.1053938269615173,0.08471861481666565,XArbitraryZVertical,0.3400966700881485,0.4775008315753106,-0.6856375346687366,0.4315417555921712,0.8784891963005066,0.3612531721591949,-0.312654435634613,0,0,0,-1,-1,watch,2026-03-03T15:38:39.121-08:00,58,0.9666666666666667,2026-03-03T15:14:50.513-08:00,0.04817426841822398,0
2026-03-03T15:48:21.457-08:00,89101.11194791667,0.85662841796875,0.3076934814453125,-0.22662353515625,89101.09196050001,-1.751964571518311,1.226738762741652,-0.3728367360244298,-0.2750015556812286,-0.155206561088562,-0.05899368971586227,-0.003655791282653809,-0.08100986480712891,0.1024047136306763,XArbitraryZVertical,0.3374868919814972,0.4785757473480157,-0.6855674038222118,0.4325103170010134,0.8767179250717163,0.364258736371994,-0.3141357004642487,0,0,0,-1,-1,watch,2026-03-03T15:38:39.121-08:00,58,0.9666666666666667,2026-03-03T15:14:50.513-08:00,0.04817426841822398,0
2026-03-03T15:48:21.477-08:00,89101.13193491667,0.8652801513671875,0.324981689453125,-0.2542877197265625,89101.11194791667,-1.746599472795805,1.226134711253505,-0.3755033727254729,-0.2645403146743774,-0.09756805747747421,-0.03094192408025265,-0.01898229122161865,-0.05904743075370789,0.08771237730979919,XArbitraryZVertical,0.3351975889091632,0.4800777261777567,-0.6848349042772507,0.4337845827462231,0.8756106495857239,0.366740882396698,-0.3143359124660492,0,0,0,-1,-1,watch,2026-03-03T15:38:39.121-08:00,58,0.9666666666666667,2026-03-03T15:14:50.513-08:00,0.04817426841822398,0
2026-03-03T15:48:21.498-08:00,89101.15192091667,0.894012451171875,0.3167877197265625,-0.26959228515625,89101.13193491667,-1.742188583436512,1.226350175716768,-0.3775404423426528,-0.1844791173934937,-0.04920930415391922,-0.0184454619884491,-0.009693324565887451,-0.04365357756614685,0.05960655212402344,XArbitraryZVertical,0.3336007413992839,0.481418081646903,-0.6840921151247662,0.4347013449016588,0.874973475933075,0.3686352372169495,-0.3138943612575531,0,0,0,-1,-1,watch,2026-03-03T15:38:39.121-08:00,58,0.9666666666666667,2026-03-03T15:14:50.513-08:00,0.04817426841822398,0
2026-03-03T15:48:21.517-08:00,89101.17190791667,0.8933868408203125,0.2974700927734375,-0.276092529296875,89101.15192091667,-1.739193244957802,1.226652249267693,-0.3787259538241108,-0.1293448656797409,-0.03186837956309319,0.006933508440852165,0.01935625076293945,-0.05294933915138245,0.04389002919197083,XArbitraryZVertical,0.3326265190147797,0.4823053422686493,-0.6835365576289788,0.435337598082941,0.874656081199646,0.3697369992733002,-0.3134823143482208,0,0,0,-1,-1,watch,2026-03-03T15:38:39.121-08:00,58,0.9666666666666667,2026-03-03T15:14:50.513-08:00,0.04817426841822398,0
2026-03-03T15:48:21.537-08:00,89101.19189491667,0.883453369140625,0.2982635498046875,-0.2610931396484375,89101.17190791667,-1.736246805564997,1.227293498108573,-0.3792389545476696,-0.160941407084465,-0.01397513225674629,0.03611775860190392,0.01870852708816528,-0.07274356484413147,0.03676488995552063,XArbitraryZVertical,0.3319802336328294,0.4830739089938251,-0.6828516113544346,0.4360530521416974,0.8746781945228577,0.3702135980129242,-0.312857449054718,0,0,0,-1,-1,watch,2026-03-03T15:38:39.121-08:00,58,0.9666666666666667,2026-03-03T15:14:50.513-08:00,0.04817426841822398,0
2026-03-03T15:48:21.557-08:00,89101.21188191668,0.870849609375,0.317596435546875,-0.265106201171875,89101.19189491667,-1.732194296394115,1.228804399044318,-0.3794163820449363,-0.1913294941186905,0.01665651425719261,0.07391658425331116,0.008365273475646973,-0.07211485505104065,0.0504203736782074,XArbitraryZVertical,0.3314622739523938,0.4841239267108186,-0.6817385904447536,0.4370233487202735,0.8750881552696228,0.3703784346580505,-0.3115135729312897,0,0,0,-1,-1,watch,2026-03-03T15:38:39.121-08:00,58,0.9666666666666667,2026-03-03T15:14:50.513-08:00,0.04817426841822398,0
2026-03-03T15:48:21.577-08:00,89101.23186791668,0.866790771484375,0.321807861328125,-0.2858428955078125,89101.21188191668,-1.727710382609412,1.231161671416955,-0.3788685882534687,-0.1751815974712372,0.05402027815580368,0.1166342422366142,-0.005161523818969727,-0.05227306485176086,0.04441115260124207,XArbitraryZVertical,0.3313435057795928,0.4852347585107983,-0.6802983719155722,0.4381243289901445,0.8760111927986145,0.3698695302009583,-0.3095174133777618,0,0,0,-1,-1,watch,2026-03-03T15:38:39.121-08:00,58,0.9666666666666667,2026-03-03T15:14:50.513-08:00,0.04817426841822398,0
2026-03-03T15:48:21.597-08:00,89101.25185491667,0.8752899169921875,0.32464599609375,-0.2950286865234375,89101.23186791668,-1.723675790895429,1.234056400337205,-0.3774245888692022,-0.1267858296632767,0.08713185787200928,0.1453360468149185,-0.01061582565307617,-0.04671967029571533,0.02131351828575134,XArbitraryZVertical,0.3317831241391542,0.4861499021329298,-0.6787511686840076,0.4391755616028611,0.8774066567420959,0.3685275614261627,-0.3071564733982086,0,0,0,-1,-1,watch,2026-03-03T15:38:39.121-08:00,58,0.9666666666666667,2026-03-03T15:14:50.513-08:00,0.04817426841822398,0
2026-03-03T15:48:21.617-08:00,89101.27184191668,0.8836822509765625,0.32867431640625,-0.2891082763671875,89101.25185491667,-1.720498620054137,1.237195805529604,-0.3750378136901875,-0.07623671740293503,0.1109300181269646,0.1791295558214188,-0.003905355930328369,-0.04166173934936523,0.0096588134765625,XArbitraryZVertical,0.3327954086253865,0.4867272670348197,-0.6772266191571127,0.4401226709677757,0.8791952133178711,0.3663077056407928,-0.3046875596046448,0,0,0,-1,-1,watch,2026-03-03T15:38:39.121-08:00,58,0.9666666666666667,2026-03-03T15:14:50.513-08:00,0.04817426841822398,0
2026-03-03T15:48:21.638-08:00,89101.29182791668,0.885650634765625,0.330322265625,-0.2846832275390625,89101.27184191668,-1.71782695757402,1.240574193848894,-0.3716739272634825,-0.05366741120815277,0.1310193836688995,0.2182146608829498,0.002302050590515137,-0.03450131416320801,0.01300504803657532,XArbitraryZVertical,0.3343033834861278,0.4870159740379062,-0.6756407776220839,0.4410965377942055,0.8813801407814026,0.3631755709648132,-0.3021133840084076,0,0,0,-1,-1,watch,2026-03-03T15:38:39.121-08:00,58,0.9666666666666667,2026-03-03T15:14:50.513-08:00,0.04817426841822398,0
2026-03-03T15:48:21.657-08:00,89101.31181491667,0.8839263916015625,0.335418701171875,-0.287841796875,89101.29182791668,-1.715291918827556,1.24435626373154,-0.367691213473648,-0.03963938727974892,0.1552596688270569,0.2333386391401291,0.001771092414855957,-0.02913966774940491,0.01455599069595337,XArbitraryZVertical,0.3361637466310411,0.4872107431297901,-0.6739275243657794,0.4420874315465271,0.8838794827461243,0.3594619333744049,-0.2992392480373383,0,0,0,-1,-1,watch,2026-03-03T15:38:39.121-08:00,58,0.9666666666666667,2026-03-03T15:14:50.513-08:00,0.04817426841822398,0
2026-03-03T15:48:21.677-08:00,89101.33180191668,0.8837738037109375,0.3349761962890625,-0.291107177734375,89101.31181491667,-1.712906511118403,1.248534893948177,-0.3633321296242905,-0.03484826907515526,0.1756771504878998,0.2529444992542267,-0.002673745155334473,-0.01997211575508118,0.008194863796234131,XArbitraryZVertical,0.3383027738618535,0.4873734392853633,-0.6721193167556034,0.4430282986467937,0.886600136756897,0.3553907871246338,-0.2960367202758789,0,0,0,-1,-1,watch,2026-03-03T15:38:39.121-08:00,58,0.9666666666666667,2026-03-03T15:14:50.513-08:00,0.04817426841822398,0
2026-03-03T15:48:21.697-08:00,89101.35178791668,0.903411865234375,0.3359222412109375,-0.292633056640625,89101.33180191668,-1.710463369099738,1.252987801174058,-0.3585739665983529,-0.03542963787913322,0.1824331134557724,0.2710644900798798,-0.005731940269470215,-0.01596307754516602,0.001503705978393555,XArbitraryZVertical,0.3406344006324962,0.4875066546300698,-0.6701848959982033,0.4440243517575304,0.8895056843757629,0.3509392440319061,-0.2926109433174133,0,0,0,-1,-1,watch,2026-03-03T15:38:39.121-08:00,58,0.9666666666666667,2026-03-03T15:14:50.513-08:00,0.04817426841822398,0
2026-03-03T15:48:21.717-08:00,89101.37177491667,0.9174957275390625,0.331939697265625,-0.2803955078125,89101.35178791668,-1.707768043525039,1.257459819983314,-0.353535160316192,-0.0562177412211895,0.1709463000297546,0.2864146828651428,0.01093548536300659,-0.01029425859451294,-0.003461539745330811,XArbitraryZVertical,0.3429889030326549,0.4876195642320773,-0.6681378811695089,0.4451714198427781,0.8924763202667236,0.3462164998054504,-0.2891715466976166,0,0,0,-1,-1,watch,2026-03-03T15:38:39.121-08:00,58,0.9666666666666667,2026-03-03T15:14:50.513-08:00,0.04817426841822398,0
2026-03-03T15:48:21.737-08:00,89101.39176191668,0.9063262939453125,0.33721923828125,-0.2750091552734375,89101.37177491667,-1.70424156808841,1.261962801255982,-0.3485656211344683,-0.1056829392910004,0.1625190377235413,0.2860979735851288,0.02209824323654175,-0.009610384702682495,0.005273729562759399,XArbitraryZVertical,0.3451236118851261,0.4879088898033334,-0.6658933030230306,0.4465653391869288,0.895397424697876,0.3415500521659851,-0.285669207572937,0,0,0,-1,-1,watch,2026-03-03T15:38:39.121-08:00,58,0.9666666666666667,2026-03-03T15:14:50.513-08:00,0.04817426841822398,0
2026-03-03T15:48:21.757-08:00,89101.41174891667,0.9000701904296875,0.347412109375,-0.28900146484375,89101.39176191668,-1.700009959087767,1.266704458480498,-0.3439945603871832,-0.1239176020026207,0.1700585782527924,0.26727095246315,0.008104026317596436,-3.108382225036621e-05,0.006875693798065186,XArbitraryZVertical,0.3470387335208019,0.4884891597789998,-0.6634883850024859,0.4480241331358712,0.8982222080230713,0.3372503221035004,-0.2818849086761475,0,0,0,-1,-1,watch,2026-03-03T15:38:39.121-08:00,58,0.9666666666666667,2026-03-03T15:14:50.513-08:00,0.04817426841822398,0
2026-03-03T15:48:21.777-08:00,89101.43173491667,0.9009246826171875,0.34912109375,-0.292999267578125,89101.41174891667,-1.696220806455649,1.271503435501529,-0.3398501804112513,-0.08928976207971573,0.1831157952547073,0.2353687733411789,-0.0008222460746765137,0.01406627893447876,-0.01102069020271301,XArbitraryZVertical,0.3489453089249624,0.4891285449659367,-0.6612168094774024,0.4492024660495778,0.9008924961090088,0.3333458304405212,-0.2779808640480042,0,0,0,-1,-1,watch,2026-03-03T15:38:39.121-08:00,58,0.9666666666666667,2026-03-03T15:14:50.513-08:00,0.04817426841822398,0
2026-03-03T15:48:21.797-08:00,89101.45172191667,0.8966064453125,0.3524932861328125,-0.282012939453125,89101.43173491667,-1.693631724856102,1.276099230728015,-0.3360097637959676,-0.03219318762421608,0.1885185539722443,0.2044404149055481,-0.002454161643981934,0.01939842104911804,-0.01879188418388367,XArbitraryZVertical,0.3509802225140048,0.4896010400894695,-0.6592801099737,0.4499481757173217,0.9033787250518799,0.3297226428985596,-0.2742074131965637,0,0,0,-1,-1,watch,2026-03-03T15:38:39.121-08:00,58,0.9666666666666667,2026-03-03T15:14:50.513-08:00,0.04817426841822398,0
2026-03-03T15:48:21.817-08:00,89101.47170891667,0.8903350830078125,0.350006103515625,-0.279510498046875,89101.45172191667,-1.692362844314366,1.280333030830278,-0.3322416883289551,0.02444088831543922,0.194439709186554,0.189725935459137,-0.009109139442443848,0.02633035182952881,-0.01127883791923523,XArbitraryZVertical,0.353191434852212,0.489784356524853,-0.6577033046572501,0.4503260892079955,0.9057157039642334,0.3261629343032837,-0.2707341909408569,0,0,0,-1,-1,watch,2026-03-03T15:38:39.121-08:00,58,0.9666666666666667,2026-03-03T15:14:50.513-08:00,0.04817426841822398,0
2026-03-03T15:48:21.837-08:00,89101.49169491667,0.893218994140625,0.337188720703125,-0.27783203125,89101.47170891667,-1.692160952871939,1.284303705720941,-0.3285412721794397,0.05713411793112755,0.1960367411375046,0.1683415472507477,-0.01759994029998779,0.02734342217445374,-0.0120355486869812,XArbitraryZVertical,0.3555522849172676,0.4897398120491271,-0.6564132373080599,0.4503989127382139,0.9079350233078003,0.3226626515388489,-0.2674749791622162,0,0,0,-1,-1,watch,2026-03-03T15:38:39.121-08:00,58,0.9666666666666667,2026-03-03T15:14:50.513-08:00,0.04817426841822398,0
2026-03-03T15:48:21.857-08:00,89101.51168191667,0.8912353515625,0.332977294921875,-0.2676544189453125,89101.49169491667,-1.692365766287236,1.288113009944798,-0.3252218536239065,0.04998379945755005,0.1913774609565735,0.1471817493438721,-0.01675188541412354,0.01766964793205261,-0.01352033019065857,XArbitraryZVertical,0.3578415970981954,0.4896871839175151,-0.6552907653670448,0.450277390817085,0.9099707007408142,0.3195190131664276,-0.2643117010593414,0,0,0,-1,-1,watch,2026-03-03T15:38:39.121-08:00,58,0.9666666666666667,2026-03-03T15:14:50.513-08:00,0.04817426841822398,0
2026-03-03T15:48:21.877-08:00,89101.53166891668,0.889434814453125,0.3385162353515625,-0.266143798828125,89101.51168191667,-1.692385299266118,1.291888794864775,-0.3223380424373283,0.03548474982380867,0.1875360012054443,0.1326493322849274,-0.02060902118682861,0.01619219779968262,-0.006527870893478394,XArbitraryZVertical,0.3599408274838106,0.4897747577111302,-0.6541895950834505,0.4501101634099055,0.9118442535400391,0.3167850375175476,-0.2611265778541565,0,0,0,-1,-1,watch,2026-03-03T15:38:39.121-08:00,58,0.9666666666666667,2026-03-03T15:14:50.513-08:00,0.04817426841822398,0
2026-03-03T15:48:21.897-08:00,89101.55165491668,0.90264892578125,0.3398895263671875,-0.269134521484375,89101.53166891668,-1.692383394761568,1.295630024749503,-0.319581265027177,0.04055221378803253,0.1848227828741074,0.1328130513429642,-0.02421712875366211,0.02434712648391724,-0.008194178342819214,XArbitraryZVertical,0.3619821820399922,0.4898919094112269,-0.6531019590823517,0.4499250138937704,0.9136517643928528,0.3141690492630005,-0.2579496204853058,0,0,0,-1,-1,watch,2026-03-03T15:38:39.121-08:00,58,0.9666666666666667,2026-03-03T15:14:50.513-08:00,0.04817426841822398,0
2026-03-03T15:48:21.917-08:00,89101.57164191667,0.9062347412109375,0.338409423828125,-0.2639312744140625,89101.55165491668,-1.692557498703219,1.299197941573571,-0.3168852845995035,0.04833192750811577,0.1776959598064423,0.1233858168125153,-0.01273012161254883,0.02828103303909302,-0.01422008872032166,XArbitraryZVertical,0.3639886066493151,0.4899541357614337,-0.6520880538610955,0.4497091810195684,0.9153789877891541,0.3116084337234497,-0.2549144923686981,0,0,0,-1,-1,watch,2026-03-03T15:38:39.121-08:00,58,0.9666666666666667,2026-03-03T15:14:50.513-08:00,0.04817426841822398,0
2026-03-03T15:48:21.937-08:00,89101.59162891668,0.904205322265625,0.3408355712890625,-0.25714111328125,89101.57164191667,-1.692872591383604,1.302533640490371,-0.3143299508568291,0.0484924279153347,0.1682432889938354,0.1114421784877777,-0.01075440645217896,0.02923008799552917,-0.01186144351959229,XArbitraryZVertical,0.3659090983662572,0.4899750857693461,-0.6511635430751911,0.4494675122553084,0.9169890880584717,0.3091793358325958,-0.252069890499115,0,0,0,-1,-1,watch,2026-03-03T15:38:39.121-08:00,58,0.9666666666666667,2026-03-03T15:14:50.513-08:00,0.04817426841822398,0
2026-03-03T15:48:21.957-08:00,89101.61161491668,0.9066009521484375,0.3415069580078125,-0.25799560546875,89101.59162891668,-1.693382679220481,1.305687487108442,-0.3121582982201894,0.05629202723503113,0.1637629717588425,0.08321327716112137,-0.01421999931335449,0.03372222185134888,-0.007789194583892822,XArbitraryZVertical,0.3677021037767207,0.4900195903563818,-0.6503693075746302,0.4491054793906578,0.9184252619743347,0.3071133494377136,-0.2493519335985184,0,0,0,-1,-1,watch,2026-03-03T15:38:39.121-08:00,58,0.9666666666666667,2026-03-03T15:14:50.513-08:00,0.04817426841822398,0
2026-03-03T15:48:21.977-08:00,89101.63160191667,0.90252685546875,0.3397979736328125,-0.2560272216796875,89101.61161491668,-1.69427945611117,1.308568501033359,-0.3105609071630951,0.06978395581245422,0.1534630507230759,0.04705988988280296,-0.01301157474517822,0.03591418266296387,-0.01116389036178589,XArbitraryZVertical,0.3693295984752481,0.4900813929953561,-0.6497956209535398,0.4485325957871255,0.9196124672889709,0.3055927455425262,-0.2468317449092865,0,0,0,-1,-1,watch,2026-03-03T15:38:39.121-08:00,58,0.9666666666666667,2026-03-03T15:14:50.513-08:00,0.04817426841822398,0
2026-03-03T15:48:21.997-08:00,89101.65158891668,0.9079437255859375,0.337615966796875,-0.254180908203125,89101.63160191667,-1.695700028749327,1.311122240925828,-0.3095590873741657,0.0872700959444046,0.1430270224809647,0.01714302599430084,-0.01800847053527832,0.03515923023223877,-0.01146629452705383,XArbitraryZVertical,0.3708023486256745,0.4901276723891719,-0.6494878381684683,0.4477118538407286,0.920535147190094,0.3046387135982513,-0.2445609718561172,0,0,0,-1,-1,watch,2026-03-03T15:38:39.121-08:00,58,0.9666666666666667,2026-03-03T15:14:50.513-08:00,0.04817426841822398,0
2026-03-03T15:48:22.017-08:00,89101.67157591667,0.910186767578125,0.33392333984375,-0.2516326904296875,89101.65158891668,-1.697549911897067,1.313309565943676,-0.3089718769382796,0.09776383638381958,0.1310988664627075,-0.004933759104460478,-0.01329714059829712,0.03353655338287354,-0.01158854365348816,XArbitraryZVertical,0.3721386492914457,0.4901189972988788,-0.6494050886849135,0.4467315920638476,0.9212407469749451,0.3040793538093567,-0.2425923943519592,0,0,0,-1,-1,watch,2026-03-03T15:38:39.121-08:00,58,0.9666666666666667,2026-03-03T15:14:50.513-08:00,0.04817426841822398,0
2026-03-03T15:48:22.037-08:00,89101.69156191667,0.91094970703125,0.3329010009765625,-0.248199462890625,89101.67157591667,-1.699606826209225,1.315248483517345,-0.3087222545893023,0.09862412512302399,0.1257384866476059,-0.01975296437740326,-0.01159614324569702,0.03008177876472473,-0.01080781221389771,XArbitraryZVertical,0.3733455779414197,0.490102661043644,-0.6494642957253282,0.4456552199020423,0.9217828512191772,0.3038415610790253,-0.2408249229192734,0,0,0,-1,-1,watch,2026-03-03T15:38:39.121-08:00,58,0.9666666666666667,2026-03-03T15:14:50.513-08:00,0.04817426841822398,0
2026-03-03T15:48:22.065-08:00,89101.71154891668,0.911163330078125,0.3312530517578125,-0.2523040771484375,89101.69156191667,-1.70182692797918,1.317021001248842,-0.308733811937407,0.1058288589119911,0.1203004345297813,-0.03343666344881058,-0.01125520467758179,0.02904844284057617,-0.009009748697280884,XArbitraryZVertical,0.3744618474254657,0.4900851141518769,-0.6496287818936927,0.4444968625271247,0.9222049713134766,0.3038525581359863,-0.2391898185014725,0,0,0,-1,-1,watch,2026-03-03T15:38:39.121-08:00,58,0.9666666666666667,2026-03-03T15:14:50.513-08:00,0.04817426841822398,0
2026-03-03T15:48:22.077-08:00,89101.73153591667,0.904266357421875,0.3261871337890625,-0.2604827880859375,89101.71154891668,-1.704299498837607,1.318572053885866,-0.3089143838423167,0.1170571967959404,0.1102503091096878,-0.0434672124683857,-0.01135838031768799,0.02722844481468201,-0.01455873250961304,XArbitraryZVertical,0.3755187497168922,0.4900132176311467,-0.6499144456104576,0.4432651491274763,0.922521710395813,0.3040245771408081,-0.2377454340457916,0,0,0,-1,-1,watch,2026-03-03T15:38:39.121-08:00,58,0.9666666666666667,2026-03-03T15:14:50.513-08:00,0.04817426841822398,0
2026-03-03T15:48:22.097-08:00,89101.75152191667,0.9061126708984375,0.330657958984375,-0.2808380126953125,89101.73153591667,-1.706909704761839,1.319743448922225,-0.3093038866038363,0.1127841547131538,0.08518991619348526,-0.05669839680194855,-0.01841837167739868,0.02179151773452759,-0.02384766936302185,XArbitraryZVertical,0.3764250633933237,0.4898842400310571,-0.6503316840563352,0.4420253691326878,0.9226847887039185,0.3043956160545349,-0.2366352081298828,0,0,0,-1,-1,watch,2026-03-03T15:38:39.121-08:00,58,0.9666666666666667,2026-03-03T15:14:50.513-08:00,0.04817426841822398,0
2026-03-03T15:48:22.117-08:00,89101.77150891667,0.9087982177734375,0.3362274169921875,-0.2840118408203125,89101.75152191667,-1.709464972483543,1.320215030622486,-0.3100729365542689,0.1026989445090294,0.03610857576131821,-0.07198336720466614,-0.01645654439926147,0.02552986145019531,-0.04469609260559082,XArbitraryZVertical,0.3769796980779637,0.4897094473591236,-0.6509245485729974,0.4408721584239366,0.922569215297699,0.3051280975341797,-0.2361419349908829,0,0,0,-1,-1,watch,2026-03-03T15:38:39.121-08:00,58,0.9666666666666667,2026-03-03T15:14:50.513-08:00,0.04817426841822398,0
2026-03-03T15:48:22.137-08:00,89101.79149591667,0.910430908203125,0.3457794189453125,-0.2837982177734375,89101.77150891667,-1.711787531457508,1.319665832270777,-0.311156171761778,0.08270534873008728,-0.01553962379693985,-0.08995968103408813,-0.0133204460144043,0.03006786108016968,-0.04744558036327362,XArbitraryZVertical,0.3770533351472572,0.4894360494127075,-0.6517047470711803,0.4399591107740977,0.922118604183197,0.306159496307373,-0.2365662753582001,0,0,0,-1,-1,watch,2026-03-03T15:38:39.121-08:00,58,0.9666666666666667,2026-03-03T15:14:50.513-08:00,0.04817426841822398,0
2026-03-03T15:48:22.157-08:00,89101.81148191667,0.9134063720703125,0.3620452880859375,-0.29852294921875,89101.79149591667,-1.713752970376824,1.318298704512995,-0.312692370819839,0.06520802527666092,-0.06079531833529472,-0.1076452881097794,-0.01090699434280396,0.03815782070159912,-0.04608932137489319,XArbitraryZVertical,0.3766402930532275,0.489170351275514,-0.6526276981771546,0.4392396193988792,0.9213377833366394,0.307621568441391,-0.2377089112997055,0,0,0,-1,-1,watch,2026-03-03T15:38:39.121-08:00,58,0.9666666666666667,2026-03-03T15:14:50.513-08:00,0.04817426841822398,0
2026-03-03T15:48:22.177-08:00,89101.83146891667,0.933349609375,0.416290283203125,-0.3575286865234375,89101.81148191667,-1.7159706466111,1.315886408203704,-0.3146687495117478,0.1010638475418091,-0.1110525652766228,-0.1496070325374603,-0.006765305995941162,0.0525437593460083,-0.05874598026275635,XArbitraryZVertical,0.3758179362472187,0.488745713138526,-0.6538667613854449,0.4385736002950474,0.9201716184616089,0.3095014989376068,-0.2397770136594772,0,0,0,-1,-1,watch,2026-03-03T15:38:39.121-08:00,58,0.9666666666666667,2026-03-03T15:14:50.513-08:00,0.04817426841822398,0
2026-03-03T15:48:22.197-08:00,89101.85145591667,0.9789581298828125,0.503326416015625,-0.410064697265625,89101.83146891667,-1.71973436100502,1.311580987342904,-0.3179886329523776,0.1562741100788116,-0.2146578878164291,-0.2789513170719147,0.01521706581115723,0.1036335825920105,-0.1140569746494293,XArbitraryZVertical,0.3743582612757183,0.4879754253262807,-0.655995622463062,0.4374991216868643,0.9181324243545532,0.3126566708087921,-0.2434717565774918,0,0,0,-1,-1,watch,2026-03-03T15:38:39.121-08:00,58,0.9666666666666667,2026-03-03T15:14:50.513-08:00,0.04817426841822398,0
2026-03-03T15:48:22.217-08:00,89101.87144291667,0.993560791015625,0.527069091796875,-0.4029083251953125,89101.85145591667,-1.724628681526423,1.304357776274861,-0.3246848313408734,0.1052727922797203,-0.3557227253913879,-0.485156387090683,0.06464850902557373,0.1843162775039673,-0.1605243533849716,XArbitraryZVertical,0.3712198113834062,0.4872634494920468,-0.6593982679600192,0.4358485715917793,0.914309561252594,0.3190101087093353,-0.2495403587818146,0,0,0,-1,-1,watch,2026-03-03T15:38:39.121-08:00,58,0.9666666666666667,2026-03-03T15:14:50.513-08:00,0.04817426841822398,0
2026-03-03T15:48:22.237-08:00,89101.89142891667,0.98785400390625,0.5169219970703125,-0.391876220703125,89101.87144291667,-1.729107172984663,1.294592285874608,-0.335559634925519,0.01978354901075363,-0.4717331230640411,-0.67909836769104,0.08512312173843384,0.1977714002132416,-0.1454126536846161,XArbitraryZVertical,0.3658945317497031,0.48720976031068,-0.6637394051464186,0.4338176196654027,0.9084376096725464,0.3292976319789886,-0.2574956715106964,0,0,0,-1,-1,watch,2026-03-03T15:38:39.121-08:00,58,0.9666666666666667,2026-03-03T15:14:50.513-08:00,0.04817426841822398,0
2026-03-03T15:48:22.257-08:00,89101.91141591668,0.9639434814453125,0.5337066650390625,-0.43084716796875,89101.89142891667,-1.734367851779317,1.282381482526058,-0.3501678941342249,0.07110372930765152,-0.5791223049163818,-0.8535895943641663,0.08733636140823364,0.173866480588913,-0.1247041821479797,XArbitraryZVertical,0.3588087775508653,0.4875143046356801,-0.6691313403345188,0.4311024447447074,0.9005176424980164,0.3430555164813995,-0.2671721279621124,0,0,0,-1,-1,watch,2026-03-03T15:38:39.121-08:00,58,0.9666666666666667,2026-03-03T15:14:50.513-08:00,0.04817426841822398,0
2026-03-03T15:48:22.277-08:00,89101.93140291667,0.917510986328125,0.55780029296875,-0.4694061279296875,89101.91141591668,-1.742712173153955,1.266582583574244,-0.3672032770083039,0.170135498046875,-0.70887291431427,-1.015506505966187,0.07346457242965698,0.1747000813484192,-0.1512731313705444,XArbitraryZVertical,0.3504911160583264,0.4872052321778952,-0.6760095503675017,0.4275489539188607,0.8904788494110107,0.3590065538883209,-0.279574066400528,0,0,0,-1,-1,watch,2026-03-03T15:38:39.121-08:00,58,0.9666666666666667,2026-03-03T15:14:50.513-08:00,0.04817426841822398,0
2026-03-03T15:48:22.297-08:00,89101.95138891667,0.90911865234375,0.6693115234375,-0.4853363037109375,89101.93140291667,-1.754135167488549,1.246939266206501,-0.3874235785650884,0.229659378528595,-0.8257297277450562,-1.240226984024048,0.03975749015808105,0.1799960732460022,-0.1747657656669617,XArbitraryZVertical,0.3405813976169068,0.4865019232879275,-0.6844012153276554,0.4229837811656046,0.8777534961700439,0.3778041899204254,-0.2946403920650482,0,0,0,-1,-1,watch,2026-03-03T15:38:39.121-08:00,58,0.9666666666666667,2026-03-03T15:14:50.513-08:00,0.04817426841822398,0
2026-03-03T15:48:22.317-08:00,89101.97137591668,0.922271728515625,0.7659149169921875,-0.5227203369140625,89101.95138891667,-1.769964506840759,1.223473676333782,-0.4106470486355333,0.4028595685958862,-0.8965205550193787,-1.43780791759491,0.04700416326522827,0.2701088488101959,-0.1732531785964966,XArbitraryZVertical,0.3294051888640281,0.485232564740864,-0.6944024141687106,0.4169495074579388,0.8621144890785217,0.3992026746273041,-0.3120831549167633,0,0,0,-1,-1,watch,2026-03-03T15:38:39.121-08:00,58,0.9666666666666667,2026-03-03T15:14:50.513-08:00,0.04817426841822398,0
2026-03-03T15:48:22.337-08:00,89101.99136291667,0.9430999755859375,0.798370361328125,-0.5755767822265625,89101.97137591668,-1.792972512272629,1.195348653472354,-0.435748115414041,0.6622484922409058,-0.9749711751937866,-1.64306366443634,0.07886457443237305,0.3438261449337006,-0.1902967393398285,XArbitraryZVertical,0.3176090363911642,0.4826103023527561,-0.7064031532129028,0.4089086299742092,0.8434070944786072,0.4220887124538422,-0.332423597574234,0,0,0,-1,-1,watch,2026-03-03T15:38:39.121-08:00,58,0.9666666666666667,2026-03-03T15:14:50.513-08:00,0.04817426841822398,0
2026-03-03T15:48:22.357-08:00,89102.01134991668,0.9641876220703125,0.79681396484375,-0.6086578369140625,89101.99136291667,-1.823345540179743,1.16139432196515,-0.4627634080654806,0.8310074806213379,-1.111596703529358,-1.901944279670715,0.1222266554832458,0.3519477546215057,-0.2193831503391266,XArbitraryZVertical,0.304710845330532,0.4785963518372621,-0.7203799704477394,0.3989353970914413,0.8208732604980469,0.4464225769042969,-0.3561936616897583,0,0,0,-1,-1,watch,2026-03-03T15:38:39.121-08:00,58,0.9666666666666667,2026-03-03T15:14:50.513-08:00,0.04817426841822398,0
2026-03-03T15:48:22.377-08:00,89102.03133591668,0.95465087890625,0.7989044189453125,-0.5921478271484375,89102.01134991668,-1.86132952490768,1.119843322878289,-0.4911978203975701,1.086261034011841,-1.295801401138306,-2.06823992729187,0.1705675721168518,0.3251314759254456,-0.2243624329566956,XArbitraryZVertical,0.290135159780375,0.4729417615329506,-0.7362870606349632,0.3873356343268416,0.7936199307441711,0.4716824293136597,-0.3842953443527222,0,0,0,-1,-1,watch,2026-03-03T15:38:39.121-08:00,58,0.9666666666666667,2026-03-03T15:14:50.513-08:00,0.04817426841822398,0
2026-03-03T15:48:22.396-08:00,89102.05132291667,0.9508056640625,0.866912841796875,-0.56451416015625,89102.03133591668,-1.909695645987054,1.06873209076432,-0.5180766192183509,1.449251651763916,-1.453740119934082,-2.278605222702026,0.1930919885635376,0.3036943078041077,-0.1740628480911255,XArbitraryZVertical,0.2744747757372708,0.4643501748400188,-0.7543706650032139,0.3741222244590189,0.7615588903427124,0.4952100813388824,-0.4180850386619568,0,0,0,-1,-1,watch,2026-03-03T15:38:39.121-08:00,58,0.9666666666666667,2026-03-03T15:14:50.513-08:00,0.04817426841822398,0
2026-03-03T15:48:22.417-08:00,89102.07130991668,0.893707275390625,0.9016265869140625,-0.5963287353515625,89102.05132291667,-1.970633811312841,1.007531468544159,-0.5422171923376079,1.86525022983551,-1.571022033691406,-2.464450597763062,0.2265645265579224,0.3508763313293457,-0.1071508824825287,XArbitraryZVertical,0.2580305466495945,0.452480475281899,-0.7746854012175932,0.358530429818869,0.7242410182952881,0.5160364508628845,-0.4573633074760437,0,0,0,-1,-1,watch,2026-03-03T15:38:39.121-08:00,58,0.9666666666666667,2026-03-03T15:14:50.513-08:00,0.04817426841822398,0
2026-03-03T15:48:22.436-08:00,89102.09129591667,0.88751220703125,0.919158935546875,-0.664703369140625,89102.07130991668,-2.046541899233902,0.9355952312554955,-0.5600616830767562,2.477716445922852,-1.640374183654785,-2.649020433425903,0.2117335796356201,0.3703880906105042,-0.09363836050033569,XArbitraryZVertical,0.2415850735153826,0.4362240795539019,-0.7972773394196181,0.3401383340270467,0.6819736957550049,0.5312384366989136,-0.5026904344558716,0,0,0,-1,-1,watch,2026-03-03T15:38:39.121-08:00,58,0.9666666666666667,2026-03-03T15:14:50.513-08:00,0.04817426841822398,0
2026-03-03T15:48:22.456-08:00,89102.111284,0.9005584716796875,0.86468505859375,-0.7233734130859375,89102.09129591667,-2.138187317056782,0.8526243127904619,-0.5671618167098327,3.13670539855957,-1.77276086807251,-2.749757528305054,0.2524017691612244,0.3819184303283691,-0.1097192168235779,XArbitraryZVertical,0.225560190335148,0.4142831465531751,-0.8220499604067021,0.3189447548561272,0.6351103782653809,0.5372403860092163,-0.5549841523170471,0,0,0,-1,-1,watch,2026-03-03T15:38:39.121-08:00,58,0.9666666666666667,2026-03-03T15:14:50.513-08:00,0.04817426841822398,0
2026-03-03T15:48:22.476-08:00,89102.13127100001,0.8468475341796875,0.865203857421875,-0.689056396484375,89102.111284,-2.245587192624656,0.7575407250169534,-0.5556932387754757,4.170103073120117,-1.981776833534241,-2.724210023880005,0.316811740398407,0.3371526598930359,-0.106162428855896,XArbitraryZVertical,0.2101143609417517,0.3837270633128274,-0.8492459474105688,0.2956127054480454,0.5837467312812805,0.5275323390960693,-0.6172109842300415,0,0,0,-1,-1,watch,2026-03-03T15:38:39.121-08:00,58,0.9666666666666667,2026-03-03T15:14:50.513-08:00,0.04817426841822398,0
2026-03-03T15:48:22.496-08:00,89102.151257,0.7873992919921875,0.786834716796875,-0.6551055908203125,89102.13127100001,-2.364201954927145,0.6547559867619615,-0.5198053860684125,5.239243030548096,-2.198087930679321,-2.684900760650635,0.3183165192604065,0.3684925734996796,-0.0006285905838012695,XArbitraryZVertical,0.1953598091623311,0.3429586135537464,-0.8781437301875344,0.2703285648470398,0.528531014919281,0.4967112243175507,-0.6884278655052185,0,0,0,-1,-1,watch,2026-03-03T15:38:39.121-08:00,58,0.9666666666666667,2026-03-03T15:14:50.513-08:00,0.04817426841822398,0
2026-03-03T15:48:22.516-08:00,89102.17124400001,0.7437896728515625,0.5451507568359375,-0.5981903076171875,89102.151257,-2.484682437902576,0.5527980450256789,-0.4577785890603914,5.844226360321045,-2.331761121749878,-2.51685094833374,0.316391795873642,0.3448781669139862,0.1083251237869263,XArbitraryZVertical,0.1811536233172255,0.2923491320174475,-0.9068391924912289,0.2436351743271874,0.4710074663162231,0.4419565200805664,-0.7634307146072388,0,0,0,-1,-1,watch,2026-03-03T15:38:39.121-08:00,58,0.9666666666666667,2026-03-03T15:14:50.513-08:00,0.04817426841822398,0
2026-03-03T15:48:22.536-08:00,89102.191231,0.663787841796875,0.3660125732421875,-0.538360595703125,89102.17124400001,-2.593407831021061,0.4604890313706274,-0.3758468158952382,6.069991111755371,-2.475220203399658,-2.231486082077026,0.3304228186607361,0.1780903339385986,0.2351130843162537,XArbitraryZVertical,0.1665961368163625,0.2357838752414347,-0.9323058283336039,0.2178471761295849,0.4133667945861816,0.3670603632926941,-0.8333033919334412,0,0,0,-1,-1,watch,2026-03-03T15:38:39.121-08:00,58,0.9666666666666667,2026-03-03T15:14:50.513-08:00,0.04817426841822398,0
2026-03-03T15:48:22.556-08:00,89102.21121800001,0.5529632568359375,0.32421875,-0.5236663818359375,89102.191231,-2.686405800848467,0.3799624027194823,-0.2832308334749066,5.961036205291748,-2.507731199264526,-2.051321268081665,0.3076792657375336,0.08655333518981934,0.3533171415328979,XArbitraryZVertical,0.1508554693666181,0.1772110299331216,-0.9531207649737632,0.1933897861406541,0.3561085760593414,0.2794592082500458,-0.8916777372360229,0,0,0,-1,-1,watch,2026-03-03T15:38:39.121-08:00,58,0.9666666666666667,2026-03-03T15:14:50.513-08:00,0.04817426841822398,0
2026-03-03T15:48:22.577-08:00,89102.23120400001,0.473541259765625,0.2202301025390625,-0.5542144775390625,89102.21121800001,-2.764703838302632,0.3131167242899292,-0.189962330144569,5.379197120666504,-2.338274240493774,-1.933120489120483,0.2504788935184479,0.135396808385849,0.4105977416038513,XArbitraryZVertical,0.1349200938367354,0.1210970493097795,-0.9686797697253102,0.1696805104882536,0.3024843633174896,0.1888218969106674,-0.9342641234397888,0,0,0,-1,-1,watch,2026-03-03T15:38:39.121-08:00,58,0.9666666666666667,2026-03-03T15:14:50.513-08:00,0.04817426841822398,0
2026-03-03T15:48:22.596-08:00,89102.251191,0.45770263671875,0.0566558837890625,-0.601409912109375,89102.23120400001,-2.830828242614579,0.258974450751857,-0.1036251715353168,4.666032314300537,-2.065861940383911,-1.929236769676208,0.21882563829422,0.1167902573943138,0.4072532057762146,XArbitraryZVertical,0.1194511346626121,0.070693506414582,-0.9794016795086437,0.1466493574921693,0.2547155916690826,0.1034398153424263,-0.9614676833152771,0,0,0,-1,-1,watch,2026-03-03T15:38:39.121-08:00,58,0.9666666666666667,2026-03-03T15:14:50.513-08:00,0.04817426841822398,0
2026-03-03T15:48:22.616-08:00,89102.27117800001,0.405029296875,-0.176483154296875,-0.5950927734375,89102.251191,-2.887959815856061,0.2160009465700896,-0.03080051627819905,3.759618520736694,-1.847896456718445,-1.900990724563599,0.2434790432453156,0.02586020715534687,0.3748891949653625,XArbitraryZVertical,0.1049760095894448,0.02881837571299642,-0.9862829436953487,0.1240783412532717,0.2142235636711121,0.03079564683139324,-0.9762990474700928,0,0,0,-1,-1,watch,2026-03-03T15:38:39.121-08:00,58,0.9666666666666667,2026-03-03T15:14:50.513-08:00,0.04817426841822398,0
2026-03-03T15:48:22.636-08:00,89102.29116400001,0.304168701171875,-0.1511383056640625,-0.592254638671875,89102.27117800001,-2.938052441833518,0.1804317769582232,0.02616594325902483,2.859023332595825,-1.715790987014771,-1.869893193244934,0.22563636302948,-0.1503202319145203,0.3883367776870728,XArbitraryZVertical,0.09094345344442073,-0.003809751123372401,-0.9905756933202156,0.1023452659563211,0.17939293384552,-0.02616295777261257,-0.9834295511245728,0,0,0,-1,-1,watch,2026-03-03T15:38:39.121-08:00,58,0.9666666666666667,2026-03-03T15:14:50.513-08:00,0.04817426841822398,0
2026-03-03T15:48:22.656-08:00,89102.311151,0.290924072265625,0.0604400634765625,-0.59466552734375,89102.29116400001,-2.981689261869342,0.1497110061957209,0.07136305912042878,2.407488107681274,-1.555001497268677,-1.683529853820801,0.1553959548473358,-0.07983583211898804,0.3940427899360657,XArbitraryZVertical,0.07734044345789394,-0.02949135184528385,-0.9931683803292674,0.08225157543962036,0.1487727463245392,-0.07130250334739685,-0.9862974286079407,0,0,0,-1,-1,watch,2026-03-03T15:38:39.121-08:00,58,0.9666666666666667,2026-03-03T15:14:50.513-08:00,0.04817426841822398,0
2026-03-03T15:48:22.676-08:00,89102.33113800001,0.29339599609375,0.1003570556640625,-0.670623779296875,89102.311151,-3.020511625670772,0.1248262489632419,0.114196261693476,2.440715312957764,-1.300641655921936,-1.586637258529663,0.1672326624393463,0.1743882596492767,0.3910911679267883,XArbitraryZVertical,0.06560292208807975,-0.05308403732388328,-0.9943856508586296,0.06384023530836967,0.1236914172768593,-0.113948218524456,-0.9857566952705383,0,0,0,-1,-1,watch,2026-03-03T15:38:39.121-08:00,58,0.9666666666666667,2026-03-03T15:14:50.513-08:00,0.04817426841822398,0
2026-03-03T15:48:22.696-08:00,89102.35112400001,0.2622528076171875,-0.0362548828125,-0.6706695556640625,89102.33113800001,-3.057966430196903,0.1065055376545617,0.1604031372855329,2.509197473526001,-1.051217317581177,-1.567961096763611,0.1884563267230988,0.2600732147693634,0.3109455704689026,XArbitraryZVertical,0.05635429029683978,-0.07771430396523869,-0.9943243467384215,0.04586813809874701,0.1049396619200706,-0.1597161889076233,-0.9815693497657776,0,0,0,-1,-1,watch,2026-03-03T15:38:39.121-08:00,58,0.9666666666666667,2026-03-03T15:14:50.513-08:00,0.04817426841822398,0
2026-03-03T15:48:22.717-08:00,89102.371111,0.1742401123046875,-0.2596588134765625,-0.684295654296875,89102.35112400001,-3.093864517036016,0.09370260330509658,0.2044366738008288,2.179956197738647,-0.8874271512031555,-1.489070534706116,0.1706357300281525,0.1667606830596924,0.3042104244232178,XArbitraryZVertical,0.04900863401101806,-0.1007877205395829,-0.9932916419191821,0.02848881781128062,0.09161708503961563,-0.2030155956745148,-0.9748799800872803,0,0,0,-1,-1,watch,2026-03-03T15:38:39.121-08:00,58,0.9666666666666667,2026-03-03T15:14:50.513-08:00,0.04817426841822398,0
